time,ax,ay,az,fx,fy,fz,tx,ty,tz
8777,-0.00292365,0,-9.80875,-0.894288,-0.723731,-4.85633,-0.277802,-0.257379,0.00197672
8778,-0.00584555,0,-9.8075,-0.87909,-0.718115,-4.85979,-0.276477,-0.255986,0.00139974
8779,-0.00876571,0,-9.80625,-0.866039,-0.716763,-4.86656,-0.275257,-0.254836,0.000605153
8782,-0.0116841,0,-9.80501,-0.873154,-0.719449,-4.86189,-0.275806,-0.256218,0.0008522
8783,-0.0146008,0,-9.80376,-0.878647,-0.72065,-4.85769,-0.276253,-0.257216,0.00102541
8784,-0.0175158,0,-9.80251,-0.88093,-0.720208,-4.8581,-0.276434,-0.257472,0.000979908
8787,-0.020429,0,-9.80126,-0.881562,-0.721047,-4.85879,-0.27633,-0.257371,0.00131053
8789,-0.0233405,0,-9.80002,-0.883279,-0.72217,-4.85567,-0.276552,-0.258072,0.00138035
8790,-0.0262502,0,-9.79877,-0.884094,-0.722554,-4.85476,-0.276637,-0.258482,0.00150089
8791,-0.0291583,0,-9.79752,-0.882054,-0.721636,-4.85842,-0.276456,-0.258057,0.00146652
8792,-0.0320646,0,-9.79628,-0.880188,-0.720921,-4.86337,-0.276221,-0.257179,0.00162707
8793,-0.0349691,0,-9.79503,-0.877379,-0.719882,-4.86454,-0.276081,-0.256714,0.00136614
8794,-0.037872,0,-9.79379,-0.877889,-0.72026,-4.86721,-0.276074,-0.256177,0.00131781
8795,-0.0407731,0,-9.79254,-0.878578,-0.720769,-4.86739,-0.275985,-0.256069,0.001499
8796,-0.0436725,0,-9.7913,-0.878006,-0.721904,-4.86673,-0.275969,-0.256161,0.00146454
8797,-0.0465702,0,-9.79005,-0.878461,-0.722792,-4.86648,-0.275918,-0.256087,0.00154537
8798,-0.0494661,0,-9.78881,-0.879075,-0.722916,-4.86584,-0.276051,-0.256279,0.00163388
8799,-0.0523604,0,-9.78756,-0.879995,-0.722261,-4.86517,-0.276202,-0.256691,0.00156294
8800,-0.0552529,0,-9.78632,-0.882099,-0.722064,-4.86344,-0.276372,-0.257019,0.00155345
8801,-0.0581437,0,-9.78508,-0.882866,-0.722578,-4.86118,-0.276572,-0.257477,0.00137668
8802,-0.0610328,0,-9.78383,-0.883864,-0.723266,-4.85922,-0.276675,-0.257837,0.00138359
8803,-0.0639202,0,-9.78259,-0.883884,-0.723912,-4.85834,-0.276614,-0.258011,0.00132935
8804,-0.0668059,0,-9.78135,-0.882836,-0.724112,-4.86042,-0.276459,-0.257601,0.00131564
8805,-0.0696899,0,-9.78011,-0.879324,-0.723943,-4.86133,-0.276213,-0.257206,0.00104686
8806,-0.0725721,0,-9.77887,-0.877957,-0.72413,-4.86463,-0.276125,-0.25661,0.00119893
8807,-0.0754527,0,-9.77762,-0.877114,-0.723687,-4.86727,-0.276097,-0.256345,0.00117591
8808,-0.0783316,0,-9.77638,-0.877578,-0.723739,-4.86831,-0.276117,-0.256098,0.00119656
8809,-0.0812087,0,-9.77514,-0.877999,-0.723837,-4.86919,-0.276137,-0.255886,0.0012158
8810,-0.0840842,0,-9.7739,-0.877819,-0.724387,-4.86961,-0.276135,-0.255823,0.00126932
8811,-0.0869579,0,-9.77266,-0.877605,-0.724249,-4.87044,-0.276032,-0.255703,0.00131894
8812,-0.08983,0,-9.77142,-0.878558,-0.724342,-4.8703,-0.276031,-0.255704,0.00155837
8813,-0.0927004,0,-9.77018,-0.879595,-0.724342,-4.8695,-0.276102,-0.255979,0.00154327
8814,-0.095569,0,-9.76894,-0.880059,-0.724941,-4.8672,-0.276281,-0.25649,0.00135884
8815,-0.098436,0,-9.7677,-0.881919,-0.725118,-4.86471,-0.276446,-0.256875,0.0013222
8816,-0.101301,0,-9.76647,-0.882974,-0.724744,-4.86294,-0.276606,-0.257324,0.00125694
8817,-0.104165,0,-9.76523,-0.884727,-0.723933,-4.86285,-0.276659,-0.257342,0.00128213
8818,-0.107027,0,-9.76399,-0.885036,-0.723803,-4.86379,-0.276668,-0.257045,0.00130832
8819,-0.109887,0,-9.76275,-0.884384,-0.723678,-4.86563,-0.276575,-0.256782,0.00143472
8820,-0.112746,0,-9.76152,-0.883522,-0.723604,-4.86709,-0.276419,-0.256519,0.00147417
8821,-0.115602,0,-9.76028,-0.88253,-0.724186,-4.86775,-0.276307,-0.256325,0.00143294
8822,-0.118458,0,-9.75904,-0.881707,-0.72534,-4.86786,-0.276312,-0.256227,0.0013886
8823,-0.121311,0,-9.75781,-0.881545,-0.725931,-4.86833,-0.276336,-0.256024,0.0013172
8824,-0.124163,0,-9.75657,-0.881972,-0.726052,-4.86907,-0.276375,-0.255733,0.00122522
8825,-0.127013,0,-9.75533,-0.882363,-0.726201,-4.86971,-0.276406,-0.255483,0.00115305
8826,-0.129861,0,-9.7541,-0.882899,-0.726272,-4.86957,-0.276488,-0.255546,0.000884964
8827,-0.132708,0,-9.75286,-0.884809,-0.726067,-4.86887,-0.276567,-0.255549,0.000775934
8828,-0.135553,0,-9.75163,-0.886344,-0.726795,-4.86655,-0.276688,-0.255795,0.000660076
8829,-0.138397,0,-9.75039,-0.887963,-0.726777,-4.86519,-0.276768,-0.255977,0.000635614
8830,-0.141239,0,-9.74916,-0.888876,-0.726065,-4.86446,-0.276817,-0.256163,0.000889939
8831,-0.144079,0,-9.74793,-0.887293,-0.725298,-4.86479,-0.276683,-0.256513,0.00113784
8832,-0.146917,0,-9.74669,-0.885533,-0.725001,-4.86577,-0.276456,-0.256684,0.00147716
8833,-0.149754,0,-9.74546,-0.884318,-0.725517,-4.86686,-0.276237,-0.256525,0.00168199
8834,-0.152589,0,-9.74423,-0.882806,-0.727202,-4.86667,-0.276099,-0.256447,0.00170687
8835,-0.155422,0,-9.743,-0.882301,-0.728218,-4.86513,-0.276062,-0.256666,0.00182084
8836,-0.158254,0,-9.74176,-0.882632,-0.727763,-4.86495,-0.276179,-0.256772,0.00186014
8837,-0.161084,0,-9.74053,-0.883792,-0.726826,-4.86604,-0.276305,-0.256438,0.00172583
8838,-0.163913,0,-9.7393,-0.884236,-0.726198,-4.86775,-0.276347,-0.256055,0.00162423
8839,-0.166739,0,-9.73807,-0.883209,-0.725994,-4.86977,-0.276359,-0.255779,0.00143855
8840,-0.169565,0,-9.73684,-0.88287,-0.725999,-4.87043,-0.276278,-0.255574,0.00136848
8841,-0.172388,0,-9.73561,-0.882035,-0.72674,-4.86949,-0.276224,-0.255734,0.00137798
8842,-0.17521,0,-9.73438,-0.881842,-0.727594,-4.86688,-0.276177,-0.256243,0.00166205
8843,-0.17803,0,-9.73315,-0.881057,-0.727774,-4.86505,-0.276168,-0.256797,0.00184997
8844,-0.180849,0,-9.73192,-0.880935,-0.727757,-4.86454,-0.276251,-0.257002,0.00192477
8845,-0.183665,0,-9.73069,-0.88202,-0.726582,-4.86536,-0.276286,-0.257057,0.00191653
8846,-0.186481,0,-9.72946,-0.882242,-0.726235,-4.86616,-0.276376,-0.256978,0.00160079
8847,-0.189294,0,-9.72823,-0.882778,-0.726145,-4.86659,-0.276478,-0.256823,0.00124449
8848,-0.192106,0,-9.727,-0.884343,-0.725642,-4.86658,-0.27653,-0.256728,0.00116614
8849,-0.194917,0,-9.72577,-0.884112,-0.72611,-4.86659,-0.276569,-0.256729,0.000931575
8850,-0.197725,0,-9.72454,-0.884077,-0.726801,-4.86707,-0.276573,-0.256366,0.000850463
8851,-0.200532,0,-9.72332,-0.883598,-0.726465,-4.86852,-0.276472,-0.256203,0.00105596
8852,-0.203338,0,-9.72209,-0.883298,-0.726155,-4.86948,-0.276314,-0.255849,0.00137113
8853,-0.206141,0,-9.72086,-0.882541,-0.72579,-4.87075,-0.276236,-0.255849,0.00157597
8854,-0.208943,0,-9.71964,-0.881978,-0.726292,-4.87101,-0.27624,-0.255789,0.00157132
8855,-0.211744,0,-9.71841,-0.882219,-0.726474,-4.8707,-0.276181,-0.255827,0.00140235
8856,-0.214543,0,-9.71718,-0.882742,-0.726945,-4.86938,-0.276242,-0.256114,0.00135605
8857,-0.21734,0,-9.71596,-0.882729,-0.727645,-4.86783,-0.276372,-0.256419,0.00111051
8858,-0.220135,0,-9.71473,-0.883288,-0.727779,-4.86689,-0.276491,-0.256562,0.000878337
8859,-0.222929,0,-9.71351,-0.884011,-0.727266,-4.86667,-0.276562,-0.256656,0.000758901
8860,-0.225722,0,-9.71228,-0.885951,-0.725754,-4.86665,-0.276579,-0.256745,0.000939206
8861,-0.228512,0,-9.71106,-0.885816,-0.72594,-4.86605,-0.27662,-0.25693,0.000848256
8862,-0.231302,0,-9.70983,-0.886872,-0.726113,-4.86556,-0.276651,-0.25685,0.00078103
8863,-0.234089,0,-9.70861,-0.887832,-0.726272,-4.86517,-0.276674,-0.256782,0.000727732
8864,-0.236875,0,-9.70739,-0.888362,-0.72624,-4.86507,-0.276652,-0.256813,0.000786771
8865,-0.239659,0,-9.70616,-0.887427,-0.725389,-4.86632,-0.276615,-0.256803,0.000964107
8866,-0.242442,0,-9.70494,-0.885586,-0.724323,-4.86721,-0.276466,-0.256726,0.00157121
8867,-0.245223,0,-9.70372,-0.881707,-0.723333,-4.86919,-0.276157,-0.256946,0.00241499
8868,-0.248002,0,-9.7025,-0.876617,-0.724457,-4.87007,-0.27575,-0.257145,0.00307701
8869,-0.25078,0,-9.70127,-0.872247,-0.726709,-4.87106,-0.275377,-0.257245,0.00315068
8870,-0.253556,0,-9.70005,-0.871853,-0.729336,-4.86965,-0.275324,-0.257207,0.0028762
8871,-0.25633,0,-9.69883,-0.873967,-0.729451,-4.86673,-0.275567,-0.257664,0.00279658
8872,-0.259103,0,-9.69761,-0.876749,-0.728342,-4.86222,-0.276037,-0.258496,0.00255734
8873,-0.261874,0,-9.69639,-0.880316,-0.726239,-4.86194,-0.276595,-0.258421,0.00164354
8874,-0.264644,0,-9.69517,-0.884025,-0.723618,-4.86328,-0.276873,-0.257991,0.00140719
8875,-0.267412,0,-9.69395,-0.885068,-0.721991,-4.86465,-0.276837,-0.257725,0.00165441
8876,-0.270179,0,-9.69273,-0.883754,-0.722997,-4.86569,-0.276612,-0.257501,0.00152979
8877,-0.272944,0,-9.69151,-0.882684,-0.725076,-4.8648,-0.27641,-0.257526,0.00152821
8878,-0.275707,0,-9.69029,-0.881927,-0.726343,-4.86201,-0.276274,-0.258228,0.00185591
8879,-0.278469,0,-9.68907,-0.882475,-0.726738,-4.8609,-0.276375,-0.258381,0.00175759
8880,-0.281229,0,-9.68785,-0.883338,-0.725452,-4.86269,-0.276521,-0.257846,0.00150084
8881,-0.283987,0,-9.68663,-0.882055,-0.722896,-4.86443,-0.276486,-0.257282,0.00118334
8882,-0.286744,0,-9.68542,-0.879234,-0.722136,-4.86635,-0.27636,-0.256665,0.000792025
8883,-0.289499,0,-9.6842,-0.877692,-0.722003,-4.87031,-0.276135,-0.255954,0.000657171
8884,-0.292253,0,-9.68298,-0.876386,-0.723875,-4.86964,-0.275918,-0.256054,0.000962587
8885,-0.295005,0,-9.68176,-0.875967,-0.725642,-4.86661,-0.275803,-0.256787,0.00126933
8886,-0.297755,0,-9.68055,-0.87717,-0.727588,-4.86272,-0.275796,-0.2573,0.00145193
8887,-0.300504,0,-9.67933,-0.877361,-0.727907,-4.8613,-0.27598,-0.257741,0.00129588
8888,-0.303252,0,-9.67811,-0.878421,-0.726498,-4.86213,-0.276155,-0.257607,0.00123937
8889,-0.305997,0,-9.6769,-0.878715,-0.724385,-4.86191,-0.276322,-0.257493,0.000871191
8890,-0.308742,0,-9.67568,-0.879877,-0.723308,-4.86343,-0.276432,-0.257091,0.000772519
8891,-0.311484,0,-9.67447,-0.881323,-0.72302,-4.86285,-0.276462,-0.257265,0.000910328
8892,-0.314225,0,-9.67325,-0.881604,-0.724067,-4.8602,-0.276449,-0.25774,0.000968067
8893,-0.316965,0,-9.67204,-0.882154,-0.725169,-4.85793,-0.276378,-0.258116,0.00115601
8894,-0.319702,0,-9.67082,-0.881634,-0.726015,-4.8577,-0.276265,-0.258095,0.00137372
8895,-0.322439,0,-9.66961,-0.878839,-0.72578,-4.85838,-0.276049,-0.257875,0.00101433
8896,-0.325173,0,-9.6684,-0.876891,-0.724338,-4.86067,-0.275926,-0.257333,0.000870215
8897,-0.327906,0,-9.66718,-0.875439,-0.723291,-4.8623,-0.275856,-0.256781,0.000644388
8898,-0.330638,0,-9.66597,-0.875179,-0.723251,-4.86387,-0.275914,-0.256624,0.000635891
8899,-0.333368,0,-9.66476,-0.875428,-0.723753,-4.86324,-0.276004,-0.256951,0.00059866
8900,-0.336096,0,-9.66354,-0.876254,-0.724303,-4.86171,-0.275995,-0.25726,0.000652835
8901,-0.338823,0,-9.66233,-0.877504,-0.72442,-4.86092,-0.275909,-0.257464,0.000904815
8902,-0.341548,0,-9.66112,-0.877105,-0.724795,-4.86141,-0.275866,-0.257356,0.000966549
8903,-0.344272,0,-9.65991,-0.877801,-0.724137,-4.86282,-0.275918,-0.257151,0.00110751
8904,-0.346994,0,-9.6587,-0.879431,-0.72339,-4.86353,-0.275992,-0.257102,0.0011229
8905,-0.349715,0,-9.65749,-0.881206,-0.722379,-4.86337,-0.276179,-0.257188,0.000996534
8906,-0.352434,0,-9.65628,-0.883654,-0.721663,-4.86227,-0.276336,-0.257327,0.00104539
8907,-0.355151,0,-9.65507,-0.88421,-0.721921,-4.86136,-0.276472,-0.257526,0.00091925
8908,-0.357867,0,-9.65386,-0.884201,-0.722293,-4.86133,-0.276339,-0.257443,0.00121743
8909,-0.360581,0,-9.65265,-0.881982,-0.723629,-4.86221,-0.276176,-0.257354,0.00128422
8910,-0.363294,0,-9.65144,-0.879981,-0.72451,-4.86416,-0.275998,-0.257063,0.00129629
8911,-0.366005,0,-9.65023,-0.880099,-0.72448,-4.86587,-0.275931,-0.256771,0.00153142
8912,-0.368715,0,-9.64902,-0.878884,-0.724998,-4.86661,-0.276007,-0.256729,0.00140619
8913,-0.371423,0,-9.64781,-0.879805,-0.725059,-4.86581,-0.276149,-0.256739,0.0014134
8914,-0.374129,0,-9.6466,-0.880444,-0.724531,-4.86586,-0.276251,-0.256895,0.0012818
8915,-0.376834,0,-9.64539,-0.881482,-0.724928,-4.86507,-0.276294,-0.25685,0.00146642
8916,-0.379538,0,-9.64419,-0.880735,-0.725522,-4.86494,-0.276236,-0.256825,0.00145301
8917,-0.38224,0,-9.64298,-0.88035,-0.726305,-4.86476,-0.276125,-0.256774,0.0015821
8918,-0.38494,0,-9.64177,-0.879606,-0.726767,-4.86497,-0.276177,-0.256975,0.0013893
8919,-0.387639,0,-9.64056,-0.881166,-0.72616,-4.86429,-0.276273,-0.257164,0.00140505
8920,-0.390336,0,-9.63936,-0.882071,-0.725953,-4.86324,-0.276438,-0.257385,0.00121291
8921,-0.393032,0,-9.63815,-0.882882,-0.725746,-4.86235,-0.276569,-0.257574,0.00106241
8922,-0.395726,0,-9.63695,-0.883022,-0.725674,-4.86243,-0.276613,-0.257639,0.000944948
8923,-0.398418,0,-9.63574,-0.882628,-0.725529,-4.8634,-0.276545,-0.257508,0.00116423
8924,-0.401109,0,-9.63454,-0.882248,-0.725395,-4.86519,-0.276314,-0.257112,0.00138896
8925,-0.403799,0,-9.63333,-0.880615,-0.726402,-4.86651,-0.276167,-0.256766,0.00128888
8926,-0.406487,0,-9.63213,-0.880268,-0.727154,-4.86612,-0.276056,-0.256724,0.00144349
8927,-0.409173,0,-9.63092,-0.879994,-0.727837,-4.86484,-0.276152,-0.256971,0.00151791
8928,-0.411858,0,-9.62972,-0.880463,-0.727574,-4.8646,-0.276278,-0.257123,0.00130064
8929,-0.414542,0,-9.62851,-0.882068,-0.726275,-4.86513,-0.276379,-0.256927,0.00137008
8930,-0.417223,0,-9.62731,-0.882903,-0.725313,-4.86636,-0.27641,-0.256661,0.00143412
8931,-0.419904,0,-9.62611,-0.882838,-0.725264,-4.86762,-0.276401,-0.256366,0.00142414
8932,-0.422583,0,-9.6249,-0.88262,-0.725252,-4.86804,-0.276269,-0.25641,0.00138882
8933,-0.42526,0,-9.6237,-0.883315,-0.725692,-4.86631,-0.276192,-0.256732,0.00153004
8934,-0.427936,0,-9.6225,-0.883173,-0.726798,-4.86416,-0.276273,-0.257221,0.00152795
8935,-0.43061,0,-9.6213,-0.883622,-0.727267,-4.86273,-0.276361,-0.257521,0.00149256
8936,-0.433282,0,-9.6201,-0.883946,-0.726458,-4.86338,-0.276436,-0.257563,0.00135448
8937,-0.435954,0,-9.61889,-0.884046,-0.725868,-4.86456,-0.276435,-0.257324,0.00145671
8938,-0.438623,0,-9.61769,-0.88388,-0.72571,-4.86614,-0.27642,-0.256932,0.00144066
8939,-0.441291,0,-9.61649,-0.884253,-0.725599,-4.86676,-0.276368,-0.256753,0.00167296
8940,-0.443958,0,-9.61529,-0.884209,-0.725862,-4.86627,-0.276375,-0.256993,0.00168609
8941,-0.446623,0,-9.61409,-0.884271,-0.726525,-4.86438,-0.276377,-0.257288,0.0015682
8942,-0.449287,0,-9.61289,-0.884611,-0.727059,-4.86291,-0.276454,-0.257578,0.00153097
8943,-0.451949,0,-9.61169,-0.884258,-0.727903,-4.86191,-0.276539,-0.25761,0.00150523
8944,-0.454609,0,-9.61049,-0.884143,-0.727706,-4.86284,-0.276552,-0.257392,0.00151966
8945,-0.457268,0,-9.60929,-0.884008,-0.727275,-4.86477,-0.276525,-0.256989,0.00149851
8946,-0.459926,0,-9.6081,-0.884096,-0.726365,-4.86693,-0.276483,-0.256615,0.00154825
8947,-0.462582,0,-9.6069,-0.883975,-0.726548,-4.86699,-0.276511,-0.256541,0.00155711
8948,-0.465236,0,-9.6057,-0.882629,-0.727144,-4.86678,-0.276429,-0.256737,0.00132964
8949,-0.467889,0,-9.6045,-0.882454,-0.728058,-4.86615,-0.276328,-0.256609,0.00138936
8950,-0.470541,0,-9.6033,-0.882803,-0.728261,-4.86631,-0.276308,-0.256507,0.00156103
8951,-0.473191,0,-9.60211,-0.881887,-0.727785,-4.86693,-0.276193,-0.25659,0.00170252
8952,-0.475839,0,-9.60091,-0.881666,-0.727575,-4.86727,-0.276226,-0.256609,0.00177081
8953,-0.478486,0,-9.59971,-0.88195,-0.727193,-4.86781,-0.276318,-0.256596,0.00147984
8954,-0.481132,0,-9.59852,-0.883652,-0.726898,-4.86648,-0.276444,-0.256749,0.00138776
8955,-0.483776,0,-9.59732,-0.884654,-0.727335,-4.86385,-0.276567,-0.257214,0.00138874
8956,-0.486418,0,-9.59613,-0.885563,-0.727635,-4.86167,-0.276671,-0.257611,0.0013938
8957,-0.489059,0,-9.59493,-0.886113,-0.727853,-4.86162,-0.2767,-0.257548,0.001265
8958,-0.491699,0,-9.59374,-0.885412,-0.727729,-4.86274,-0.276677,-0.257517,0.00111962
8959,-0.494337,0,-9.59254,-0.885402,-0.727009,-4.86409,-0.276632,-0.257284,0.00127652
8960,-0.496973,0,-9.59135,-0.885165,-0.727031,-4.86463,-0.276622,-0.257114,0.00133798
8961,-0.499608,0,-9.59015,-0.885099,-0.72668,-4.86557,-0.276637,-0.257028,0.00114221
8962,-0.502242,0,-9.58896,-0.885967,-0.726337,-4.8655,-0.276603,-0.256932,0.00143796
8963,-0.504874,0,-9.58776,-0.885107,-0.726929,-4.86546,-0.276587,-0.25693,0.00150677
8964,-0.507504,0,-9.58657,-0.883596,-0.726431,-4.8664,-0.276389,-0.25704,0.00177368
8965,-0.510133,0,-9.58538,-0.881634,-0.72612,-4.86801,-0.27617,-0.257036,0.00198366
8966,-0.512761,0,-9.58419,-0.880299,-0.72655,-4.86947,-0.276053,-0.256669,0.00183769
8967,-0.515387,0,-9.58299,-0.880109,-0.726472,-4.87043,-0.27611,-0.25655,0.00152608
8968,-0.518012,0,-9.5818,-0.880796,-0.726287,-4.86864,-0.276264,-0.256949,0.00140845
8969,-0.520635,0,-9.58061,-0.881341,-0.726279,-4.86706,-0.276428,-0.25738,0.00100489
8970,-0.523256,0,-9.57942,-0.882859,-0.726642,-4.86524,-0.276529,-0.257451,0.000932671
8971,-0.525877,0,-9.57823,-0.881708,-0.727196,-4.86424,-0.276407,-0.257646,0.00116034
8972,-0.528495,0,-9.57704,-0.880435,-0.727933,-4.86401,-0.276293,-0.257626,0.00123876
8973,-0.531113,0,-9.57585,-0.878108,-0.728511,-4.8667,-0.276035,-0.257196,0.00126543
8974,-0.533728,0,-9.57466,-0.87485,-0.729656,-4.86999,-0.27559,-0.256362,0.00167731
8975,-0.536343,0,-9.57347,-0.870164,-0.73036,-4.87516,-0.27498,-0.255539,0.00252708
8976,-0.538955,0,-9.57228,-0.863204,-0.731614,-4.88082,-0.274264,-0.254776,0.00339602
8977,-0.541567,0,-9.57109,-0.854435,-0.733827,-4.88677,-0.273442,-0.254123,0.00410288
8978,-0.544177,0,-9.5699,-0.84641,-0.736704,-4.89404,-0.272495,-0.252878,0.00463317
8979,-0.546785,0,-9.56871,-0.839429,-0.740509,-4.90012,-0.271844,-0.251612,0.00480855
8980,-0.549392,0,-9.56752,-0.832785,-0.742918,-4.90624,-0.271279,-0.250615,0.0049571
8981,-0.551997,0,-9.56633,-0.828619,-0.74342,-4.91301,-0.270732,-0.249438,0.00525685
8982,-0.554601,0,-9.56514,-0.825754,-0.744715,-4.91525,-0.270654,-0.249035,0.0050348
8983,-0.557204,0,-9.56396,-0.825743,-0.745098,-4.91258,-0.270985,-0.249762,0.00456924
8984,-0.559805,0,-9.56277,-0.829964,-0.743923,-4.90744,-0.271533,-0.250943,0.00410538
8985,-0.562404,0,-9.56158,-0.836933,-0.743351,-4.89801,-0.2725,-0.252593,0.00301132
8986,-0.565003,0,-9.56039,-0.847172,-0.742135,-4.88801,-0.273805,-0.254128,0.00139491
8987,-0.567599,0,-9.55921,-0.858874,-0.738723,-4.87812,-0.275127,-0.255291,-0.000714614
8988,-0.570194,0,-9.55802,-0.870912,-0.731908,-4.87183,-0.276174,-0.256186,-0.0019003
8989,-0.572788,0,-9.55684,-0.881602,-0.723671,-4.86612,-0.2771,-0.257358,-0.0024341
8990,-0.57538,0,-9.55565,-0.893336,-0.716377,-4.85945,-0.278102,-0.259133,-0.00242972
8991,-0.577971,0,-9.55447,-0.907859,-0.709705,-4.85107,-0.279209,-0.261092,-0.00276893
8992,-0.580561,0,-9.55328,-0.923357,-0.704761,-4.83771,-0.28044,-0.263655,-0.00312255
8993,-0.583149,0,-9.5521,-0.938026,-0.698911,-4.82572,-0.281519,-0.266191,-0.00309245
8994,-0.585735,0,-9.55091,-0.951078,-0.69235,-4.81739,-0.282465,-0.268149,-0.00314314
8995,-0.58832,0,-9.54973,-0.963364,-0.684973,-4.8105,-0.28333,-0.269225,-0.00344395
8996,-0.590904,0,-9.54854,-0.973558,-0.677642,-4.80658,-0.284104,-0.269716,-0.00376937
8997,-0.593486,0,-9.54736,-0.982035,-0.670711,-4.80358,-0.284551,-0.270316,-0.00397202
8998,-0.596067,0,-9.54618,-0.990762,-0.666035,-4.79808,-0.285122,-0.271166,-0.00433497
8999,-0.598646,0,-9.54499,-1.0007,-0.663141,-4.79145,-0.285692,-0.272336,-0.00436599
9000,-0.601224,0,-9.54381,-1.01032,-0.659417,-4.78512,-0.286116,-0.273738,-0.00385952
9001,-0.6038,0,-9.54263,-1.01597,-0.656719,-4.78062,-0.286468,-0.275053,-0.00366981
9002,-0.606375,0,-9.54145,-1.01908,-0.653039,-4.78022,-0.286338,-0.275072,-0.00374788
9003,-0.608948,0,-9.54026,-1.02062,-0.650116,-4.78249,-0.28613,-0.274217,-0.00327739
9004,-0.611521,0,-9.53908,-1.01722,-0.647408,-4.79014,-0.285488,-0.272594,-0.00305622
9005,-0.614091,0,-9.5379,-1.01165,-0.647947,-4.79751,-0.284686,-0.270693,-0.00275081
9006,-0.61666,0,-9.53672,-1.00454,-0.649723,-4.8037,-0.283718,-0.269231,-0.00228457
9007,-0.619228,0,-9.53554,-0.99637,-0.653232,-4.81015,-0.282556,-0.268232,-0.0012582
9008,-0.621794,0,-9.53436,-0.987164,-0.658816,-4.81505,-0.281622,-0.267151,-0.000666901
9009,-0.624359,0,-9.53318,-0.977611,-0.664147,-4.8217,-0.280664,-0.265756,-1.26426e-05
9010,-0.626923,0,-9.532,-0.966733,-0.669037,-4.82725,-0.279641,-0.264212,0.000587455
9011,-0.629485,0,-9.53082,-0.953724,-0.673966,-4.83678,-0.278436,-0.262028,0.000953883
9012,-0.632045,0,-9.52964,-0.942139,-0.678226,-4.8479,-0.277215,-0.259424,0.00149188
9013,-0.634604,0,-9.52846,-0.929242,-0.682969,-4.85677,-0.276062,-0.257632,0.00189738
9014,-0.637162,0,-9.52728,-0.917579,-0.687584,-4.86448,-0.275033,-0.256251,0.00210909
9015,-0.639718,0,-9.52611,-0.908798,-0.693961,-4.87093,-0.274283,-0.254946,0.00248427
9016,-0.642273,0,-9.52493,-0.899552,-0.698873,-4.87369,-0.273682,-0.25434,0.00240285
9017,-0.644827,0,-9.52375,-0.892329,-0.702143,-4.87711,-0.273238,-0.253714,0.00239735
9018,-0.647379,0,-9.52257,-0.886628,-0.704009,-4.88093,-0.272851,-0.253032,0.00240276
9019,-0.649929,0,-9.5214,-0.882502,-0.70518,-4.88203,-0.27266,-0.253014,0.0022725
9020,-0.652479,0,-9.52022,-0.882626,-0.705357,-4.88281,-0.272847,-0.253282,0.00238025
9021,-0.655026,0,-9.51904,-0.885208,-0.705025,-4.87962,-0.273222,-0.254237,0.00250696
9022,-0.657573,0,-9.51787,-0.890221,-0.704352,-4.8731,-0.273876,-0.255903,0.00240846
9023,-0.660118,0,-9.51669,-0.896058,-0.702316,-4.86602,-0.274658,-0.2578,0.00206801
9024,-0.662661,0,-9.51551,-0.903846,-0.698995,-4.8577,-0.275585,-0.259905,0.00205888
9025,-0.665203,0,-9.51434,-0.911963,-0.695524,-4.84919,-0.276688,-0.262052,0.00170159
9026,-0.667744,0,-9.51316,-0.92151,-0.691117,-4.8439,-0.277623,-0.263187,0.00136256
9027,-0.670283,0,-9.51199,-0.929871,-0.686064,-4.83871,-0.27849,-0.264139,0.000440367
9028,-0.672821,0,-9.51081,-0.939615,-0.679754,-4.83578,-0.279286,-0.264477,-0.000409957
9029,-0.675358,0,-9.50964,-0.950669,-0.672009,-4.83277,-0.280152,-0.265187,-0.00101152
9030,-0.677893,0,-9.50847,-0.9623,-0.664942,-4.82779,-0.281098,-0.266175,-0.00175972
9031,-0.680427,0,-9.50729,-0.974669,-0.659896,-4.81744,-0.282071,-0.268162,-0.00243184
9032,-0.682959,0,-9.50612,-0.98907,-0.654418,-4.80889,-0.282855,-0.270164,-0.00230461
9033,-0.68549,0,-9.50495,-1.00319,-0.650355,-4.79631,-0.283932,-0.272793,-0.00216959
9034,-0.688019,0,-9.50377,-1.01787,-0.641355,-4.78861,-0.284727,-0.275102,-0.00111024
9035,-0.690547,0,-9.5026,-1.03108,-0.634414,-4.77475,-0.285518,-0.279436,-0.000374418
9036,-0.693074,0,-9.50143,-1.04638,-0.631394,-4.75827,-0.286886,-0.282816,-0.00150453
9037,-0.695599,0,-9.50026,-1.06377,-0.623878,-4.75315,-0.288068,-0.283038,-0.00261887
9038,-0.698123,0,-9.49909,-1.07568,-0.612112,-4.75265,-0.288976,-0.282074,-0.00351633
9039,-0.700645,0,-9.49791,-1.08296,-0.598341,-4.75762,-0.289471,-0.281546,-0.0043386
9040,-0.703166,0,-9.49674,-1.08943,-0.585469,-4.76399,-0.290427,-0.279689,-0.00685296
9041,-0.705686,0,-9.49557,-1.09975,-0.575504,-4.76695,-0.290545,-0.277812,-0.00803382
9042,-0.708204,0,-9.4944,-1.10811,-0.568969,-4.76677,-0.290728,-0.277379,-0.00906437
9043,-0.710721,0,-9.49323,-1.11866,-0.563837,-4.76549,-0.290536,-0.277418,-0.00870182
9044,-0.713237,0,-9.49206,-1.12597,-0.561917,-4.76166,-0.29068,-0.277745,-0.00875238
9045,-0.715751,0,-9.49089,-1.13199,-0.556731,-4.76006,-0.290326,-0.277669,-0.00827913
9046,-0.718263,0,-9.48972,-1.13751,-0.553424,-4.76101,-0.290365,-0.277219,-0.00790715
9047,-0.720775,0,-9.48855,-1.14177,-0.548686,-4.76142,-0.290223,-0.276815,-0.00764983
9048,-0.723285,0,-9.48739,-1.14754,-0.545979,-4.75929,-0.290375,-0.277272,-0.00761291
9049,-0.725793,0,-9.48622,-1.15184,-0.543619,-4.7556,-0.290337,-0.278376,-0.00738588
9050,-0.7283,0,-9.48505,-1.15651,-0.54405,-4.75106,-0.29008,-0.279525,-0.00634527
9051,-0.730806,0,-9.48388,-1.15849,-0.544113,-4.74626,-0.289757,-0.280522,-0.00591029
9052,-0.733311,0,-9.48271,-1.16025,-0.542616,-4.74398,-0.289339,-0.281028,-0.00483021
9053,-0.735814,0,-9.48155,-1.15918,-0.539047,-4.74521,-0.288769,-0.281425,-0.00359893
9054,-0.738315,0,-9.48038,-1.16068,-0.54134,-4.74058,-0.288336,-0.283271,-0.00173446
9055,-0.740816,0,-9.47921,-1.16004,-0.543768,-4.73598,-0.288276,-0.284524,-0.00192728
9056,-0.743314,0,-9.47805,-1.1607,-0.543385,-4.73662,-0.287665,-0.284443,-0.00071819
9057,-0.745812,0,-9.47688,-1.1559,-0.54433,-4.73588,-0.287342,-0.284334,-0.00051108
9058,-0.748308,0,-9.47571,-1.15633,-0.552592,-4.73036,-0.28757,-0.283152,-0.00129853
9059,-0.750803,0,-9.47455,-1.14976,-0.542714,-4.7463,-0.287426,-0.278942,-0.00416335
9060,-0.753296,0,-9.47338,-1.1473,-0.522355,-4.7724,-0.286641,-0.273202,-0.00485329
9061,-0.755788,0,-9.47222,-1.14778,-0.514968,-4.77648,-0.288234,-0.27142,-0.00864511
9062,-0.758279,0,-9.47105,-1.16392,-0.502949,-4.77835,-0.289258,-0.270761,-0.0105107
9063,-0.760768,0,-9.46989,-1.18897,-0.497593,-4.75944,-0.291001,-0.275536,-0.0103025
9064,-0.763256,0,-9.46873,-1.21433,-0.491538,-4.73399,-0.292345,-0.282179,-0.0090655
9065,-0.765743,0,-9.46756,-1.23937,-0.481527,-4.71601,-0.29288,-0.287968,-0.00597566
9066,-0.768228,0,-9.4664,-1.25678,-0.467965,-4.70514,-0.291965,-0.295161,-0.00177385
9067,-0.770712,0,-9.46523,-1.2727,-0.476413,-4.66946,-0.293723,-0.302133,-0.000770734
9068,-0.773194,0,-9.46407,-1.28611,-0.462385,-4.67223,-0.292744,-0.301718,0.00146445
9069,-0.775675,0,-9.46291,-1.29146,-0.446908,-4.68907,-0.292268,-0.299067,0.00224704
9070,-0.778155,0,-9.46175,-1.29654,-0.448279,-4.67966,-0.293803,-0.298805,-0.00035707
9071,-0.780633,0,-9.46058,-1.29749,-0.426093,-4.70411,-0.293042,-0.292373,-0.00236089
9072,-0.78311,0,-9.45942,-1.29425,-0.403602,-4.71793,-0.294658,-0.288116,-0.00667075
9073,-0.785586,0,-9.45826,-1.30138,-0.379612,-4.73757,-0.294395,-0.281978,-0.00925884
9074,-0.78806,0,-9.4571,-1.31679,-0.369963,-4.7372,-0.295457,-0.284141,-0.0112939
9075,-0.790533,0,-9.45594,-1.33668,-0.37067,-4.72247,-0.297913,-0.286192,-0.0157604
9076,-0.793004,0,-9.45478,-1.36455,-0.361468,-4.71372,-0.298133,-0.286028,-0.0140025
9077,-0.795475,0,-9.45362,-1.38015,-0.346486,-4.70389,-0.299812,-0.289258,-0.0136309
9078,-0.797944,0,-9.45246,-1.39852,-0.329958,-4.69734,-0.301045,-0.291894,-0.0131832
9079,-0.800411,0,-9.4513,-1.42125,-0.315565,-4.68893,-0.302012,-0.295727,-0.0115391
9080,-0.802877,0,-9.45014,-1.46881,-0.281006,-4.65531,-0.301272,-0.307078,-0.0067333
9081,-0.805342,0,-9.44898,-1.58424,-0.226382,-4.62033,-0.319066,-0.319158,-0.0126879
9082,-0.807805,0,-9.44782,-1.71967,-0.124583,-4.64845,-0.330331,-0.325643,-0.017364
9083,-0.810268,0,-9.44666,-1.81228,-0.0297578,-4.70264,-0.333707,-0.330308,-0.0249395
9084,-0.812728,0,-9.4455,-1.88662,-0.0198078,-4.69747,-0.330255,-0.330629,-0.0287601
9085,-0.815188,0,-9.44434,-1.93402,0.0126194,-4.70365,-0.32518,-0.324106,-0.024314
9086,-0.817646,0,-9.44319,-1.86904,0.00219495,-4.67576,-0.319804,-0.319463,-0.015906
9087,-0.820103,0,-9.44203,-1.73992,0.00858672,-4.721,-0.308042,-0.291217,-0.0127881
9088,-0.822558,0,-9.44087,-1.62988,-0.0245824,-4.74309,-0.304134,-0.277675,-0.0183711
9089,-0.825012,0,-9.43972,-1.53565,-0.0479245,-4.79231,-0.300452,-0.265078,-0.0304153
9090,-0.827465,0,-9.43856,-1.5155,-0.0844378,-4.77809,-0.299115,-0.267796,-0.0352683
9091,-0.829916,0,-9.4374,-1.52511,-0.105269,-4.71982,-0.302957,-0.284557,-0.0367536
9092,-0.832366,0,-9.43625,-1.5739,-0.0893733,-4.67303,-0.306727,-0.302107,-0.0354251
9093,-0.834815,0,-9.43509,-1.61036,-0.0741288,-4.64504,-0.311976,-0.314964,-0.0393733
9094,-0.837262,0,-9.43393,-1.64283,-0.0609516,-4.62628,-0.311672,-0.3221,-0.0381983
9095,-0.839708,0,-9.43278,-1.65292,-0.0660582,-4.60035,-0.310632,-0.329748,-0.0374895
9096,-0.842153,0,-9.43162,-1.62813,-0.0672951,-4.60574,-0.307027,-0.326581,-0.0361948
9097,-0.844596,0,-9.43047,-1.58458,-0.0665965,-4.6248,-0.301954,-0.318141,-0.0339316
9098,-0.847038,0,-9.42931,-1.54475,-0.0627717,-4.64417,-0.298743,-0.310449,-0.034352
9099,-0.849479,0,-9.42816,-1.52674,-0.0577469,-4.65235,-0.298004,-0.307269,-0.03705
9100,-0.851918,0,-9.42701,-1.5369,-0.0538636,-4.64783,-0.300036,-0.309248,-0.0402232
9101,-0.854356,0,-9.42585,-1.54509,-0.0489994,-4.64399,-0.302509,-0.311889,-0.043583
9102,-0.856793,0,-9.4247,-1.54676,-0.0428041,-4.64049,-0.301542,-0.312041,-0.0439491
9103,-0.859229,0,-9.42355,-1.54756,-0.0444127,-4.63182,-0.301637,-0.314297,-0.0440129
9104,-0.861663,0,-9.42239,-1.54399,-0.0441389,-4.62599,-0.301186,-0.31634,-0.0438562
9105,-0.864095,0,-9.42124,-1.53786,-0.0476479,-4.62283,-0.299743,-0.316798,-0.0421599
9106,-0.866527,0,-9.42009,-1.53087,-0.0524896,-4.61713,-0.298736,-0.318072,-0.0412332
9107,-0.868957,0,-9.41894,-1.52066,-0.0548643,-4.61773,-0.29715,-0.318046,-0.0402217
9108,-0.871386,0,-9.41779,-1.51352,-0.0592454,-4.61317,-0.296174,-0.318574,-0.0390451
9109,-0.873813,0,-9.41663,-1.5047,-0.062032,-4.60997,-0.295548,-0.319488,-0.0386333
9110,-0.876239,0,-9.41548,-1.4974,-0.0624108,-4.61009,-0.29461,-0.319811,-0.0379523
9111,-0.878664,0,-9.41433,-1.49383,-0.0651428,-4.60772,-0.294574,-0.320951,-0.0374409
9112,-0.881088,0,-9.41318,-1.48734,-0.06585,-4.6084,-0.294022,-0.321183,-0.0377144
9113,-0.88351,0,-9.41203,-1.48153,-0.066329,-4.61151,-0.29304,-0.32026,-0.0373797
9114,-0.885931,0,-9.41088,-1.47812,-0.0691284,-4.6108,-0.292735,-0.320285,-0.0379794
9115,-0.88835,0,-9.40973,-1.47454,-0.0692452,-4.61209,-0.292003,-0.31939,-0.0388056
9116,-0.890769,0,-9.40858,-1.47351,-0.0679069,-4.61527,-0.291676,-0.318478,-0.0384064
9117,-0.893186,0,-9.40743,-1.469,-0.067728,-4.61555,-0.291371,-0.318744,-0.0383734
9118,-0.895601,0,-9.40628,-1.46493,-0.0675818,-4.61477,-0.29112,-0.318492,-0.038969
9119,-0.898016,0,-9.40514,-1.46496,-0.0689871,-4.61305,-0.29123,-0.318809,-0.0392722
9120,-0.900429,0,-9.40399,-1.46907,-0.0676376,-4.61033,-0.291701,-0.319641,-0.0391563
9121,-0.90284,0,-9.40284,-1.47204,-0.0629483,-4.60629,-0.292054,-0.320798,-0.0392823
9122,-0.905251,0,-9.40169,-1.47924,-0.0567301,-4.60337,-0.292425,-0.322172,-0.0381365
9123,-0.90766,0,-9.40054,-1.48383,-0.050747,-4.59806,-0.292984,-0.324305,-0.0385655
9124,-0.910068,0,-9.3994,-1.49961,-0.0443646,-4.58688,-0.294572,-0.327532,-0.0389905
9125,-0.912474,0,-9.39825,-1.52066,-0.0346937,-4.58343,-0.296638,-0.330145,-0.0406845
9126,-0.914879,0,-9.3971,-1.55078,-0.024015,-4.57138,-0.299419,-0.333979,-0.0422878
9127,-0.917283,0,-9.39596,-1.5875,-0.00631181,-4.56747,-0.302249,-0.337409,-0.0435597
9128,-0.919686,0,-9.39481,-1.6241,0.011553,-4.56115,-0.305264,-0.34052,-0.044613
9129,-0.922087,0,-9.39367,-1.65884,0.0296535,-4.55854,-0.307767,-0.342909,-0.0454431
9130,-0.924487,0,-9.39252,-1.68594,0.0515397,-4.55985,-0.309697,-0.343493,-0.0464117
9131,-0.926886,0,-9.39138,-1.71788,0.0626526,-4.5531,-0.312626,-0.345943,-0.0479201
9132,-0.929283,0,-9.39023,-1.74875,0.0858262,-4.56346,-0.315781,-0.345596,-0.0504397
9133,-0.93168,0,-9.38909,-1.78184,0.107974,-4.56852,-0.31805,-0.345459,-0.0522339
9134,-0.934074,0,-9.38794,-1.81961,0.131237,-4.57603,-0.321746,-0.345805,-0.0537716
9135,-0.936468,0,-9.3868,-1.85302,0.162167,-4.58359,-0.324676,-0.346087,-0.0552865
9136,-0.93886,0,-9.38565,-1.88832,0.186662,-4.58909,-0.327107,-0.346152,-0.0554282
9137,-0.941251,0,-9.38451,-1.92105,0.207397,-4.59329,-0.33013,-0.347107,-0.0561886
9138,-0.943641,0,-9.38337,-1.95386,0.225216,-4.59278,-0.332738,-0.348554,-0.0561926
9139,-0.946029,0,-9.38222,-1.98362,0.249719,-4.6013,-0.33481,-0.348134,-0.0562867
9140,-0.948416,0,-9.38108,-2.01109,0.267376,-4.59967,-0.336716,-0.349154,-0.0558816
9141,-0.950802,0,-9.37994,-2.03375,0.282758,-4.60028,-0.338137,-0.350137,-0.0562818
9142,-0.953187,0,-9.3788,-2.05337,0.296314,-4.59862,-0.338282,-0.350585,-0.0559054
9143,-0.95557,0,-9.37765,-2.07514,0.305977,-4.59468,-0.33883,-0.352003,-0.0549478
9144,-0.957952,0,-9.37651,-2.09342,0.314469,-4.58983,-0.339007,-0.35397,-0.0545664
9145,-0.960333,0,-9.37537,-2.11106,0.320802,-4.58773,-0.338273,-0.354859,-0.0532818
9146,-0.962712,0,-9.37423,-2.12768,0.323689,-4.57918,-0.337681,-0.356758,-0.052013
9147,-0.96509,0,-9.37309,-2.1453,0.324399,-4.57049,-0.337369,-0.35916,-0.0504461
9148,-0.967467,0,-9.37195,-2.16256,0.32319,-4.56023,-0.337817,-0.362221,-0.0496226
9149,-0.969843,0,-9.37081,-2.17326,0.326003,-4.55461,-0.33731,-0.364096,-0.0495021
9150,-0.972217,0,-9.36967,-2.1915,0.32453,-4.54341,-0.337224,-0.36607,-0.0476006
9151,-0.97459,0,-9.36853,-2.20313,0.326612,-4.54632,-0.338033,-0.367769,-0.0484854
9152,-0.976962,0,-9.36739,-2.21567,0.323993,-4.53943,-0.33732,-0.368293,-0.0483832
9153,-0.979332,0,-9.36625,-2.22687,0.323408,-4.54305,-0.338368,-0.367716,-0.0493043
9154,-0.981701,0,-9.36511,-2.23628,0.327029,-4.54325,-0.338693,-0.367309,-0.0495766
9155,-0.984069,0,-9.36397,-2.24481,0.334218,-4.55335,-0.339751,-0.365223,-0.0498239
9156,-0.986436,0,-9.36284,-2.24799,0.343353,-4.55998,-0.341067,-0.363829,-0.0503051
9157,-0.988801,0,-9.3617,-2.2427,0.353449,-4.56806,-0.341069,-0.361091,-0.0510652
9158,-0.991166,0,-9.36056,-2.231,0.35966,-4.57583,-0.339857,-0.35721,-0.051629
9159,-0.993528,0,-9.35942,-2.22111,0.361828,-4.58146,-0.338305,-0.353474,-0.0512596
9160,-0.99589,0,-9.35829,-2.20778,0.360864,-4.5828,-0.336915,-0.351358,-0.0516318
9161,-0.99825,0,-9.35715,-2.19765,0.360143,-4.58658,-0.33538,-0.348625,-0.0520273
9162,-1.00061,0,-9.35601,-2.1952,0.36207,-4.58956,-0.335308,-0.346015,-0.0525701
9163,-1.00297,0,-9.35488,-2.1911,0.366857,-4.59618,-0.336182,-0.344784,-0.0541531
9164,-1.00532,0,-9.35374,-2.1869,0.372605,-4.6062,-0.335935,-0.341249,-0.0556026
9165,-1.00768,0,-9.3526,-2.17892,0.378217,-4.61501,-0.335742,-0.338195,-0.0567995
9166,-1.01003,0,-9.35147,-2.16673,0.382049,-4.62003,-0.334453,-0.334553,-0.0569233
9167,-1.01239,0,-9.35033,-2.1512,0.385282,-4.62388,-0.332724,-0.330384,-0.0562793
9168,-1.01474,0,-9.3492,-2.12877,0.390787,-4.62421,-0.331134,-0.326717,-0.0558418
9169,-1.01709,0,-9.34806,-2.10947,0.396141,-4.62185,-0.329655,-0.323346,-0.0547242
9170,-1.01944,0,-9.34693,-2.09518,0.406424,-4.62275,-0.329396,-0.320132,-0.0545571
9171,-1.02178,0,-9.3458,-2.08577,0.421311,-4.62855,-0.330597,-0.316926,-0.055512
9172,-1.02413,0,-9.34466,-2.07692,0.443473,-4.63635,-0.331729,-0.313076,-0.0570485
9173,-1.02648,0,-9.34353,-2.06921,0.461362,-4.64322,-0.332835,-0.309165,-0.0585184
9174,-1.02882,0,-9.34239,-2.0665,0.474914,-4.65064,-0.335055,-0.306136,-0.060556
9175,-1.03116,0,-9.34126,-2.06365,0.497148,-4.66422,-0.336893,-0.301627,-0.0632336
9176,-1.0335,0,-9.34013,-2.05974,0.517866,-4.67344,-0.336952,-0.297172,-0.0646203
9177,-1.03584,0,-9.339,-2.06545,0.529674,-4.6805,-0.339555,-0.295547,-0.066394
9178,-1.03818,0,-9.33786,-2.06835,0.543755,-4.69214,-0.341663,-0.293995,-0.0695559
9179,-1.04052,0,-9.33673,-2.07903,0.561958,-4.69918,-0.343841,-0.292939,-0.0713835
9180,-1.04286,0,-9.3356,-2.09843,0.580041,-4.70816,-0.346972,-0.293387,-0.0723441
9181,-1.04519,0,-9.33447,-2.11633,0.603736,-4.70813,-0.349003,-0.294844,-0.0731485
9182,-1.04753,0,-9.33334,-2.1434,0.622505,-4.71705,-0.352621,-0.29524,-0.0742425
9183,-1.04986,0,-9.33221,-2.17823,0.656164,-4.73493,-0.358388,-0.298638,-0.0774498
9184,-1.05219,0,-9.33108,-2.21368,0.702511,-4.7484,-0.361429,-0.298233,-0.0796188
9185,-1.05452,0,-9.32995,-2.25339,0.745489,-4.77302,-0.365477,-0.298004,-0.0815437
9186,-1.05685,0,-9.32882,-2.28894,0.782121,-4.78265,-0.369265,-0.300999,-0.0830273
9187,-1.05918,0,-9.32769,-2.31676,0.812933,-4.78921,-0.370692,-0.302423,-0.0840504
9188,-1.06151,0,-9.32656,-2.34677,0.834349,-4.80298,-0.373028,-0.304005,-0.0863081
9189,-1.06383,0,-9.32543,-2.38471,0.864582,-4.81556,-0.377175,-0.308668,-0.0896169
9190,-1.06615,0,-9.3243,-2.43989,0.894318,-4.82931,-0.380971,-0.313528,-0.089796
9191,-1.06848,0,-9.32317,-2.49414,0.940423,-4.84118,-0.384462,-0.320356,-0.0909983
9192,-1.0708,0,-9.32204,-2.5708,0.970678,-4.85365,-0.390295,-0.328664,-0.0897503
9193,-1.07312,0,-9.32091,-2.64847,1.02845,-4.88686,-0.397926,-0.339416,-0.0926319
9194,-1.07544,0,-9.31979,-2.73359,1.07423,-4.90421,-0.402697,-0.347251,-0.0911149
9195,-1.07776,0,-9.31866,-2.81259,1.11805,-4.93277,-0.408989,-0.358232,-0.0927645
9196,-1.08007,0,-9.31753,-2.88424,1.15189,-4.95111,-0.412089,-0.36451,-0.0922977
9197,-1.08239,0,-9.31641,-2.94713,1.18464,-4.97275,-0.414774,-0.370194,-0.0927067
9198,-1.0847,0,-9.31528,-3.00368,1.20393,-4.98042,-0.417577,-0.376446,-0.091975
9199,-1.08702,0,-9.31415,-3.05688,1.22494,-4.9779,-0.418864,-0.380231,-0.0890582
9200,-1.08933,0,-9.31303,-3.10466,1.24112,-4.97322,-0.421567,-0.385423,-0.0871009
9201,-1.09164,0,-9.3119,-3.1491,1.25477,-4.96097,-0.424164,-0.390163,-0.0841768
9202,-1.09395,0,-9.31077,-3.18612,1.26697,-4.95429,-0.426874,-0.395948,-0.0833114
9203,-1.09626,0,-9.30965,-3.21959,1.27557,-4.95019,-0.42832,-0.400054,-0.0825946
9204,-1.09856,0,-9.30852,-3.24914,1.28479,-4.95441,-0.428459,-0.401633,-0.0822662
9205,-1.10087,0,-9.3074,-3.26596,1.28401,-4.95611,-0.427497,-0.40101,-0.0834148
9206,-1.10317,0,-9.30627,-3.26452,1.27767,-4.94242,-0.425729,-0.402045,-0.0854661
9207,-1.10548,0,-9.30515,-3.27562,1.27746,-4.93724,-0.425533,-0.402124,-0.0849502
9208,-1.10778,0,-9.30403,-3.28456,1.27818,-4.92527,-0.425369,-0.401703,-0.0832936
9209,-1.11008,0,-9.3029,-3.29477,1.28394,-4.9165,-0.425536,-0.400994,-0.0813466
9210,-1.11238,0,-9.30178,-3.29612,1.28644,-4.90474,-0.425205,-0.399964,-0.0800695
9211,-1.11468,0,-9.30066,-3.28724,1.2876,-4.89481,-0.423786,-0.397399,-0.0795953
9212,-1.11697,0,-9.29953,-3.26216,1.27806,-4.87712,-0.419944,-0.394001,-0.0795894
9213,-1.11927,0,-9.29841,-3.22699,1.2659,-4.85142,-0.414055,-0.387653,-0.0782518
9214,-1.12156,0,-9.29729,-3.19317,1.25371,-4.82533,-0.409893,-0.382765,-0.0758698
9215,-1.12386,0,-9.29617,-3.16089,1.24116,-4.79168,-0.4059,-0.380249,-0.0735672
9216,-1.12615,0,-9.29504,-3.13337,1.24539,-4.78331,-0.404428,-0.3747,-0.0743941
9217,-1.12844,0,-9.29392,-3.11676,1.25508,-4.78273,-0.404449,-0.370866,-0.0762864
9218,-1.13073,0,-9.2928,-3.11015,1.27319,-4.80234,-0.406447,-0.364965,-0.0794371
9219,-1.13302,0,-9.29168,-3.11224,1.29588,-4.82784,-0.410066,-0.360894,-0.0819238
9220,-1.13531,0,-9.29056,-3.11481,1.31956,-4.85461,-0.413799,-0.356706,-0.0836132
9221,-1.13759,0,-9.28944,-3.11053,1.34352,-4.87453,-0.416083,-0.351861,-0.0842627
9222,-1.13988,0,-9.28832,-3.09707,1.36118,-4.87596,-0.416216,-0.34755,-0.0837677
9223,-1.14216,0,-9.2872,-3.07605,1.37285,-4.86594,-0.415009,-0.34294,-0.0825898
9224,-1.14445,0,-9.28608,-3.05305,1.38212,-4.85105,-0.413329,-0.339317,-0.0815211
9225,-1.14673,0,-9.28496,-3.03414,1.39292,-4.84216,-0.412286,-0.335455,-0.0817731
9226,-1.14901,0,-9.28384,-3.02397,1.40502,-4.84157,-0.412111,-0.332215,-0.0823974
9227,-1.15129,0,-9.28272,-3.01802,1.41749,-4.84505,-0.41259,-0.329466,-0.0841359
9228,-1.15356,0,-9.2816,-3.01122,1.43159,-4.84927,-0.413191,-0.326939,-0.0863774
9229,-1.15584,0,-9.28048,-3.00785,1.44295,-4.8583,-0.41388,-0.324014,-0.0885716
9230,-1.15812,0,-9.27937,-3.01379,1.45141,-4.87281,-0.416293,-0.322308,-0.0906074
9231,-1.16039,0,-9.27825,-3.02429,1.46219,-4.88652,-0.419919,-0.322125,-0.0927559
9232,-1.16266,0,-9.27713,-3.0397,1.47637,-4.90168,-0.424368,-0.322869,-0.0949035
9233,-1.16494,0,-9.27601,-3.05352,1.49311,-4.91416,-0.428211,-0.323388,-0.0968768
9234,-1.16721,0,-9.2749,-3.07079,1.51366,-4.93007,-0.431297,-0.323599,-0.0980788
9235,-1.16948,0,-9.27378,-3.08995,1.5263,-4.93174,-0.434195,-0.325377,-0.0987387
9236,-1.17174,0,-9.27266,-3.10617,1.535,-4.93115,-0.437237,-0.330035,-0.100544
9237,-1.17401,0,-9.27155,-3.1223,1.53875,-4.92797,-0.439869,-0.336279,-0.102482
9238,-1.17628,0,-9.27043,-3.14159,1.53452,-4.90346,-0.442734,-0.345483,-0.103329
9239,-1.17854,0,-9.26932,-3.15918,1.53357,-4.8627,-0.446701,-0.357491,-0.104369
9240,-1.18081,0,-9.2682,-3.17639,1.5323,-4.82028,-0.450931,-0.370611,-0.10507
9241,-1.18307,0,-9.26709,-3.18357,1.52524,-4.77698,-0.454416,-0.383094,-0.107189
9242,-1.18533,0,-9.26597,-3.19085,1.52058,-4.74196,-0.456993,-0.393144,-0.108615
9243,-1.18759,0,-9.26486,-3.19697,1.51899,-4.70597,-0.459179,-0.401951,-0.109789
9244,-1.18985,0,-9.26374,-3.20578,1.52403,-4.67622,-0.461338,-0.408735,-0.10967
9245,-1.19211,0,-9.26263,-3.21824,1.53499,-4.65883,-0.463779,-0.414344,-0.10857
9246,-1.19436,0,-9.26151,-3.22603,1.54918,-4.64551,-0.465603,-0.417947,-0.108279
9247,-1.19662,0,-9.2604,-3.23571,1.56944,-4.64856,-0.466675,-0.419506,-0.1077
9248,-1.19887,0,-9.25929,-3.2419,1.58217,-4.64397,-0.466667,-0.419983,-0.107466
9249,-1.20112,0,-9.25818,-3.24502,1.59055,-4.63668,-0.466725,-0.421595,-0.107898
9250,-1.20338,0,-9.25706,-3.2384,1.59508,-4.62259,-0.46657,-0.422593,-0.109918
9251,-1.20563,0,-9.25595,-3.23205,1.60263,-4.60796,-0.466268,-0.423139,-0.111793
9252,-1.20788,0,-9.25484,-3.22448,1.60828,-4.59315,-0.466195,-0.424334,-0.113571
9253,-1.21012,0,-9.25373,-3.21598,1.6189,-4.58894,-0.465907,-0.4243,-0.115426
9254,-1.21237,0,-9.25261,-3.20919,1.63764,-4.58765,-0.465389,-0.422079,-0.116424
9255,-1.21462,0,-9.2515,-3.20317,1.65665,-4.58636,-0.465112,-0.420161,-0.11708
9256,-1.21686,0,-9.25039,-3.19475,1.6742,-4.57881,-0.464409,-0.418711,-0.118113
9257,-1.21911,0,-9.24928,-3.19012,1.69507,-4.58041,-0.464193,-0.418265,-0.118919
9258,-1.22135,0,-9.24817,-3.18557,1.71308,-4.5827,-0.463402,-0.417629,-0.119867
9259,-1.22359,0,-9.24706,-3.18114,1.72575,-4.583,-0.461994,-0.417347,-0.121029
9260,-1.22583,0,-9.24595,-3.1741,1.73552,-4.57461,-0.460938,-0.417315,-0.122192
9261,-1.22807,0,-9.24484,-3.16961,1.74321,-4.56075,-0.460303,-0.418721,-0.122838
9262,-1.23031,0,-9.24373,-3.16239,1.73932,-4.53452,-0.460693,-0.423574,-0.123912
9263,-1.23254,0,-9.24262,-3.15413,1.73705,-4.51226,-0.461318,-0.428344,-0.125094
9264,-1.23478,0,-9.24151,-3.14627,1.73814,-4.48751,-0.461913,-0.432262,-0.125885
9265,-1.23701,0,-9.2404,-3.13889,1.74025,-4.4655,-0.463008,-0.435839,-0.126407
9266,-1.23924,0,-9.2393,-3.12858,1.74273,-4.43925,-0.463935,-0.43893,-0.127104
9267,-1.24148,0,-9.23819,-3.12084,1.75237,-4.4242,-0.464338,-0.440146,-0.127444
9268,-1.24371,0,-9.23708,-3.11618,1.76951,-4.41968,-0.464183,-0.439119,-0.127299
9269,-1.24594,0,-9.23597,-3.10845,1.78746,-4.415,-0.463278,-0.436224,-0.127445
9270,-1.24817,0,-9.23486,-3.0966,1.80284,-4.40862,-0.462442,-0.43205,-0.127978
9271,-1.25039,0,-9.23376,-3.07906,1.8193,-4.39345,-0.461827,-0.428282,-0.129191
9272,-1.25262,0,-9.23265,-3.05586,1.82582,-4.36926,-0.461712,-0.425839,-0.131121
9273,-1.25484,0,-9.23154,-3.02578,1.82778,-4.3396,-0.462268,-0.425412,-0.133949
9274,-1.25707,0,-9.23044,-2.99451,1.83257,-4.29718,-0.4637,-0.42842,-0.136929
9275,-1.25929,0,-9.22933,-2.95814,1.8363,-4.23476,-0.465858,-0.434686,-0.140512
9276,-1.26151,0,-9.22823,-2.91847,1.83722,-4.16279,-0.469171,-0.444896,-0.144439
9277,-1.26373,0,-9.22712,-2.87867,1.839,-4.08772,-0.47256,-0.457337,-0.148515
9278,-1.26595,0,-9.22602,-2.83985,1.85153,-4.026,-0.475081,-0.468805,-0.153024
9279,-1.26817,0,-9.22491,-2.79669,1.85794,-3.96509,-0.476689,-0.479931,-0.158366
9280,-1.27039,0,-9.22381,-2.75071,1.86653,-3.91487,-0.476907,-0.489284,-0.164524
9281,-1.2726,0,-9.2227,-2.70803,1.87941,-3.8788,-0.476132,-0.496022,-0.169834
9282,-1.27482,0,-9.2216,-2.67081,1.90096,-3.85535,-0.474758,-0.500587,-0.174021
9283,-1.27703,0,-9.22049,-2.64185,1.93333,-3.84149,-0.473002,-0.50244,-0.17629
9284,-1.27924,0,-9.21939,-2.61963,1.96829,-3.83412,-0.471446,-0.503539,-0.177084
9285,-1.28145,0,-9.21829,-2.59507,1.9954,-3.82065,-0.469931,-0.503348,-0.178044
9286,-1.28366,0,-9.21718,-2.56227,2.01688,-3.80359,-0.468991,-0.503427,-0.180348
9287,-1.28587,0,-9.21608,-2.52582,2.02703,-3.77641,-0.468131,-0.503819,-0.183019
9288,-1.28808,0,-9.21498,-2.48032,2.02876,-3.74357,-0.467883,-0.506519,-0.187634
9289,-1.29028,0,-9.21388,-2.43392,2.02174,-3.70239,-0.467705,-0.509555,-0.192023
9290,-1.29249,0,-9.21277,-2.39278,2.01907,-3.66032,-0.468068,-0.516226,-0.196299
9291,-1.29469,0,-9.21167,-2.36045,2.02603,-3.62117,-0.468482,-0.52474,-0.199706
9292,-1.2969,0,-9.21057,-2.33277,2.03649,-3.58997,-0.467847,-0.531471,-0.20233
9293,-1.2991,0,-9.20947,-2.31561,2.05004,-3.56397,-0.467266,-0.538132,-0.203253
9294,-1.3013,0,-9.20837,-2.30383,2.06993,-3.55197,-0.466715,-0.543005,-0.203441
9295,-1.3035,0,-9.20727,-2.29536,2.0909,-3.54364,-0.465697,-0.546269,-0.203203
9296,-1.3057,0,-9.20617,-2.28286,2.11199,-3.53509,-0.464336,-0.548914,-0.20417
9297,-1.3079,0,-9.20507,-2.2702,2.13264,-3.53247,-0.46251,-0.550156,-0.205385
9298,-1.31009,0,-9.20397,-2.25542,2.14836,-3.5296,-0.461042,-0.550236,-0.206466
9299,-1.31229,0,-9.20287,-2.24618,2.16554,-3.52193,-0.460009,-0.551074,-0.206503
9300,-1.31448,0,-9.20177,-2.23975,2.18565,-3.52221,-0.459511,-0.552422,-0.206418
9301,-1.31667,0,-9.20067,-2.23844,2.21068,-3.52448,-0.45864,-0.553236,-0.205758
9302,-1.31887,0,-9.19957,-2.24236,2.23792,-3.53678,-0.457299,-0.552267,-0.204399
9303,-1.32106,0,-9.19847,-2.24852,2.26386,-3.54526,-0.456058,-0.551366,-0.202827
9304,-1.32325,0,-9.19737,-2.2524,2.2881,-3.55234,-0.455455,-0.55013,-0.201299
9305,-1.32543,0,-9.19627,-2.25919,2.31563,-3.55839,-0.454689,-0.548279,-0.199051
9306,-1.32762,0,-9.19518,-2.26184,2.3384,-3.56526,-0.454439,-0.546135,-0.197691
9307,-1.32981,0,-9.19408,-2.26569,2.36178,-3.57073,-0.454017,-0.543301,-0.195778
9308,-1.33199,0,-9.19298,-2.26636,2.38271,-3.57952,-0.453868,-0.539408,-0.194366
9309,-1.33418,0,-9.19188,-2.26106,2.39559,-3.57394,-0.454186,-0.53709,-0.193646
9310,-1.33636,0,-9.19079,-2.24856,2.40236,-3.56549,-0.45453,-0.534543,-0.194268
9311,-1.33854,0,-9.18969,-2.22669,2.39426,-3.54585,-0.455039,-0.533879,-0.19677
9312,-1.34072,0,-9.18859,-2.2049,2.3822,-3.5233,-0.455862,-0.534505,-0.199043
9313,-1.3429,0,-9.1875,-2.18648,2.37312,-3.5,-0.456915,-0.536794,-0.200892
9314,-1.34508,0,-9.1864,-2.17509,2.37027,-3.47633,-0.457887,-0.540588,-0.201868
9315,-1.34726,0,-9.18531,-2.16766,2.37164,-3.456,-0.458574,-0.544079,-0.20222
9316,-1.34943,0,-9.18421,-2.16017,2.36797,-3.43305,-0.459323,-0.547895,-0.20256
9317,-1.35161,0,-9.18312,-2.14382,2.35661,-3.39618,-0.460463,-0.552198,-0.204187
9318,-1.35378,0,-9.18202,-2.11907,2.33872,-3.356,-0.461667,-0.556931,-0.207144
9319,-1.35595,0,-9.18093,-2.09442,2.32113,-3.32079,-0.462702,-0.561409,-0.209931
9320,-1.35812,0,-9.17983,-2.0755,2.31332,-3.28343,-0.463557,-0.566133,-0.211566
9321,-1.36029,0,-9.17874,-2.057,2.30648,-3.24914,-0.464554,-0.57121,-0.213213
9322,-1.36246,0,-9.17765,-2.04021,2.30024,-3.21998,-0.465212,-0.574763,-0.214251
9323,-1.36463,0,-9.17655,-2.02306,2.2901,-3.18804,-0.466202,-0.579209,-0.215384
9324,-1.3668,0,-9.17546,-2.0026,2.27648,-3.14963,-0.467295,-0.583767,-0.216802
9325,-1.36896,0,-9.17437,-1.97624,2.25826,-3.10814,-0.468614,-0.588345,-0.219176
9326,-1.37113,0,-9.17327,-1.9457,2.23204,-3.05346,-0.470367,-0.595178,-0.222073
9327,-1.37329,0,-9.17218,-1.90887,2.20666,-2.99742,-0.47243,-0.604366,-0.226607
9328,-1.37546,0,-9.17109,-1.86961,2.18069,-2.93959,-0.473883,-0.615709,-0.232275
9329,-1.37762,0,-9.17,-1.8388,2.16923,-2.88705,-0.474403,-0.627581,-0.237126
9330,-1.37978,0,-9.16891,-1.81157,2.1593,-2.83912,-0.47447,-0.638485,-0.241156
9331,-1.38194,0,-9.16781,-1.79484,2.16043,-2.80415,-0.474288,-0.649932,-0.244149
9332,-1.3841,0,-9.16672,-1.78168,2.16336,-2.77452,-0.473349,-0.660177,-0.246761
9333,-1.38625,0,-9.16563,-1.77302,2.16887,-2.75167,-0.471427,-0.668634,-0.248885
9334,-1.38841,0,-9.16454,-1.76453,2.17302,-2.72863,-0.469644,-0.677141,-0.251142
9335,-1.39056,0,-9.16345,-1.76383,2.18505,-2.70846,-0.467725,-0.685307,-0.252344
9336,-1.39272,0,-9.16236,-1.76553,2.20138,-2.69483,-0.465712,-0.691773,-0.253111
9337,-1.39487,0,-9.16127,-1.77332,2.22086,-2.68848,-0.463937,-0.697254,-0.252818
9338,-1.39702,0,-9.16018,-1.7816,2.24035,-2.68058,-0.462496,-0.703081,-0.2527
9339,-1.39917,0,-9.15909,-1.794,2.26384,-2.67418,-0.461077,-0.708031,-0.251837
9340,-1.40132,0,-9.158,-1.80905,2.29261,-2.67325,-0.459734,-0.710809,-0.250217
9341,-1.40347,0,-9.15692,-1.81851,2.31187,-2.66805,-0.459159,-0.712283,-0.248716
9342,-1.40562,0,-9.15583,-1.81676,2.31983,-2.65013,-0.459616,-0.714591,-0.248638
9343,-1.40776,0,-9.15474,-1.81252,2.33159,-2.64193,-0.460327,-0.714589,-0.248357
9344,-1.40991,0,-9.15365,-1.80593,2.34346,-2.62835,-0.461117,-0.714529,-0.248202
9345,-1.41205,0,-9.15256,-1.79652,2.35302,-2.6183,-0.462015,-0.713456,-0.248102
9346,-1.41419,0,-9.15148,-1.78418,2.36192,-2.61453,-0.462816,-0.710938,-0.248196
9347,-1.41634,0,-9.15039,-1.76672,2.36793,-2.6073,-0.463482,-0.707731,-0.248824
9348,-1.41848,0,-9.1493,-1.74744,2.37058,-2.60167,-0.464226,-0.703729,-0.249234
9349,-1.42062,0,-9.14821,-1.72696,2.37837,-2.59631,-0.464747,-0.699622,-0.24991
9350,-1.42275,0,-9.14713,-1.70307,2.37787,-2.58753,-0.465504,-0.696251,-0.25103
9351,-1.42489,0,-9.14604,-1.67722,2.37853,-2.57647,-0.4659,-0.693697,-0.252872
9352,-1.42703,0,-9.14496,-1.65171,2.37734,-2.56677,-0.466031,-0.692171,-0.255069
9353,-1.42916,0,-9.14387,-1.63468,2.37915,-2.56218,-0.46609,-0.691263,-0.255957
9354,-1.4313,0,-9.14279,-1.62198,2.38149,-2.55281,-0.466206,-0.692309,-0.25662
9355,-1.43343,0,-9.1417,-1.61012,2.38116,-2.53928,-0.466495,-0.694792,-0.257444
9356,-1.43556,0,-9.14062,-1.59972,2.37902,-2.52134,-0.46698,-0.69874,-0.258279
9357,-1.43769,0,-9.13953,-1.59124,2.37601,-2.50131,-0.467437,-0.703431,-0.258985
9358,-1.43982,0,-9.13845,-1.58214,2.374,-2.47501,-0.467777,-0.708873,-0.260058
9359,-1.44195,0,-9.13736,-1.57368,2.37058,-2.44834,-0.46851,-0.714438,-0.260962
9360,-1.44408,0,-9.13628,-1.56427,2.3692,-2.42754,-0.46913,-0.719493,-0.26219
9361,-1.44621,0,-9.13519,-1.55428,2.36826,-2.41104,-0.46911,-0.724004,-0.263677
9362,-1.44833,0,-9.13411,-1.54486,2.36971,-2.40153,-0.46853,-0.727597,-0.265368
9363,-1.45045,0,-9.13303,-1.53702,2.37136,-2.39356,-0.467734,-0.730569,-0.266678
9364,-1.45258,0,-9.13195,-1.53337,2.37681,-2.38864,-0.466783,-0.733348,-0.267689
9365,-1.4547,0,-9.13086,-1.5271,2.37903,-2.38191,-0.466015,-0.73585,-0.268724
9366,-1.45682,0,-9.12978,-1.52468,2.38658,-2.37885,-0.465396,-0.737947,-0.269303
9367,-1.45894,0,-9.1287,-1.52268,2.39362,-2.37516,-0.46498,-0.739658,-0.269531
9368,-1.46106,0,-9.12762,-1.52145,2.40143,-2.37113,-0.464482,-0.740862,-0.269383
9369,-1.46318,0,-9.12654,-1.51967,2.41116,-2.36899,-0.464344,-0.741912,-0.269292
9370,-1.46529,0,-9.12545,-1.51932,2.42376,-2.36957,-0.464173,-0.742413,-0.268942
9371,-1.46741,0,-9.12437,-1.52099,2.43399,-2.37725,-0.463833,-0.741938,-0.268275
9372,-1.46953,0,-9.12329,-1.51552,2.44109,-2.38094,-0.463327,-0.741662,-0.269205
9373,-1.47164,0,-9.12221,-1.50941,2.44792,-2.38965,-0.462232,-0.740347,-0.270377
9374,-1.47375,0,-9.12113,-1.50352,2.4556,-2.4017,-0.460945,-0.737807,-0.271237
9375,-1.47586,0,-9.12005,-1.5016,2.4646,-2.40777,-0.460206,-0.735794,-0.27096
9376,-1.47797,0,-9.11897,-1.50365,2.48003,-2.42283,-0.459983,-0.733673,-0.269999
9377,-1.48008,0,-9.11789,-1.50877,2.50156,-2.44334,-0.459275,-0.730002,-0.26852
9378,-1.48219,0,-9.11681,-1.51372,2.52293,-2.46189,-0.458903,-0.725901,-0.266729
9379,-1.4843,0,-9.11573,-1.51754,2.54466,-2.47997,-0.458871,-0.721375,-0.264838
9380,-1.4864,0,-9.11466,-1.51789,2.56349,-2.4975,-0.458987,-0.71716,-0.263751
9381,-1.48851,0,-9.11358,-1.51644,2.58307,-2.52105,-0.458378,-0.712128,-0.263497
9382,-1.49061,0,-9.1125,-1.51902,2.6008,-2.5502,-0.457317,-0.706256,-0.262621
9383,-1.49272,0,-9.11142,-1.51794,2.61135,-2.57316,-0.456645,-0.701276,-0.262405
9384,-1.49482,0,-9.11034,-1.51812,2.62306,-2.59448,-0.455834,-0.697064,-0.262337
9385,-1.49692,0,-9.10927,-1.52328,2.64145,-2.62684,-0.454554,-0.692173,-0.261802
9386,-1.49902,0,-9.10819,-1.53714,2.66636,-2.66286,-0.452827,-0.68631,-0.259448
9387,-1.50112,0,-9.10711,-1.55351,2.69051,-2.70002,-0.451603,-0.680469,-0.256645
9388,-1.50321,0,-9.10603,-1.56571,2.70868,-2.73217,-0.450573,-0.675472,-0.254948
9389,-1.50531,0,-9.10496,-1.5693,2.71572,-2.75131,-0.449717,-0.671444,-0.254887
9390,-1.50741,0,-9.10388,-1.57437,2.72167,-2.77432,-0.449202,-0.667448,-0.254341
9391,-1.5095,0,-9.10281,-1.58058,2.73317,-2.79872,-0.448549,-0.663479,-0.25373
9392,-1.51159,0,-9.10173,-1.59045,2.74881,-2.8314,-0.447518,-0.65916,-0.252895
9393,-1.51369,0,-9.10066,-1.59981,2.76389,-2.86369,-0.446049,-0.653972,-0.252104
9394,-1.51578,0,-9.09958,-1.61196,2.77906,-2.89945,-0.444752,-0.648025,-0.250488
9395,-1.51787,0,-9.09851,-1.62262,2.78943,-2.92712,-0.443925,-0.643146,-0.249115
9396,-1.51996,0,-9.09743,-1.63453,2.79619,-2.9541,-0.443706,-0.63925,-0.247574
9397,-1.52204,0,-9.09636,-1.65054,2.80452,-2.98162,-0.443772,-0.636767,-0.245799
9398,-1.52413,0,-9.09528,-1.66596,2.8123,-3.00592,-0.443306,-0.634152,-0.244241
9399,-1.52622,0,-9.09421,-1.68481,2.82133,-3.03452,-0.442628,-0.631692,-0.242577
9400,-1.5283,0,-9.09313,-1.70524,2.83279,-3.07163,-0.441441,-0.628041,-0.240897
9401,-1.53039,0,-9.09206,-1.72834,2.84882,-3.11901,-0.439409,-0.622157,-0.238952
9402,-1.53247,0,-9.09099,-1.74714,2.85931,-3.15985,-0.437306,-0.616439,-0.23767
9403,-1.53455,0,-9.08991,-1.76625,2.86683,-3.20176,-0.435546,-0.610908,-0.236346
9404,-1.53663,0,-9.08884,-1.78351,2.87126,-3.23675,-0.434116,-0.606178,-0.235322
9405,-1.53871,0,-9.08777,-1.79932,2.86846,-3.27208,-0.432985,-0.602135,-0.234773
9406,-1.54079,0,-9.0867,-1.81338,2.8639,-3.30347,-0.431738,-0.599021,-0.234942
9407,-1.54287,0,-9.08563,-1.83694,2.86397,-3.34362,-0.430217,-0.595753,-0.233695
9408,-1.54494,0,-9.08455,-1.86414,2.86655,-3.39421,-0.428559,-0.591104,-0.231599
9409,-1.54702,0,-9.08348,-1.89424,2.87064,-3.44666,-0.426815,-0.585257,-0.228826
9410,-1.54909,0,-9.08241,-1.91298,2.86624,-3.48786,-0.425042,-0.57916,-0.227766
9411,-1.55117,0,-9.08134,-1.92311,2.85216,-3.52497,-0.423811,-0.573367,-0.227957
9412,-1.55324,0,-9.08027,-1.93347,2.84306,-3.56272,-0.422591,-0.567631,-0.228212
9413,-1.55531,0,-9.0792,-1.94921,2.83617,-3.59827,-0.4214,-0.562596,-0.227324
9414,-1.55738,0,-9.07813,-1.96772,2.82965,-3.63429,-0.420418,-0.558572,-0.226223
9415,-1.55945,0,-9.07706,-1.98701,2.8245,-3.67396,-0.419171,-0.553909,-0.224812
9416,-1.56152,0,-9.07599,-2.0123,2.82678,-3.71452,-0.417769,-0.548951,-0.222255
9417,-1.56359,0,-9.07492,-2.04099,2.83261,-3.75617,-0.416279,-0.542744,-0.218556
9418,-1.56565,0,-9.07385,-2.06123,2.83074,-3.79446,-0.415546,-0.536061,-0.216027
9419,-1.56772,0,-9.07278,-2.07652,2.82652,-3.83039,-0.415255,-0.528542,-0.213711
9420,-1.56978,0,-9.07171,-2.08,2.81575,-3.8588,-0.415567,-0.521081,-0.212944
9421,-1.57185,0,-9.07065,-2.07252,2.79832,-3.88269,-0.41637,-0.513809,-0.213811
9422,-1.57391,0,-9.06958,-2.0642,2.78295,-3.90769,-0.417406,-0.506439,-0.214439
9423,-1.57597,0,-9.06851,-2.05579,2.76991,-3.93016,-0.418159,-0.499851,-0.214872
9424,-1.57803,0,-9.06744,-2.0453,2.76029,-3.95755,-0.41841,-0.492229,-0.215411
9425,-1.58009,0,-9.06638,-2.0345,2.74918,-3.98148,-0.418274,-0.485333,-0.216008
9426,-1.58215,0,-9.06531,-2.01622,2.7336,-4.00493,-0.417851,-0.476756,-0.217389
9427,-1.5842,0,-9.06424,-1.99491,2.71744,-4.03006,-0.417648,-0.467746,-0.218739
9428,-1.58626,0,-9.06318,-1.97774,2.71201,-4.06377,-0.417238,-0.458024,-0.218857
9429,-1.58831,0,-9.06211,-1.94691,2.69161,-4.09315,-0.417043,-0.447038,-0.220384
9430,-1.59037,0,-9.06104,-1.92345,2.67434,-4.11994,-0.417589,-0.4389,-0.220998
9431,-1.59242,0,-9.05998,-1.89766,2.65733,-4.14625,-0.418458,-0.432344,-0.222399
9432,-1.59447,0,-9.05891,-1.88352,2.6506,-4.17732,-0.418027,-0.425956,-0.222411
9433,-1.59652,0,-9.05785,-1.87091,2.63568,-4.20445,-0.418062,-0.421638,-0.222563
9434,-1.59857,0,-9.05678,-1.86875,2.63195,-4.23337,-0.417601,-0.417025,-0.220983
9435,-1.60062,0,-9.05572,-1.86818,2.62839,-4.26272,-0.416762,-0.410613,-0.218149
9436,-1.60267,0,-9.05465,-1.86461,2.62504,-4.28909,-0.416311,-0.404797,-0.216064
9437,-1.60471,0,-9.05359,-1.85467,2.61759,-4.31519,-0.416087,-0.398275,-0.214696
9438,-1.60676,0,-9.05252,-1.83929,2.61052,-4.34833,-0.415122,-0.389659,-0.214096
9439,-1.60881,0,-9.05146,-1.82105,2.59425,-4.38385,-0.414602,-0.38194,-0.214351
9440,-1.61085,0,-9.0504,-1.79975,2.57349,-4.41434,-0.414016,-0.3755,-0.215341
9441,-1.61289,0,-9.04933,-1.78182,2.55041,-4.43759,-0.413061,-0.371145,-0.215738
9442,-1.61493,0,-9.04827,-1.76,2.5237,-4.47527,-0.412362,-0.364968,-0.217619
9443,-1.61697,0,-9.04721,-1.74516,2.49501,-4.49193,-0.410638,-0.361684,-0.217639
9444,-1.61901,0,-9.04614,-1.72661,2.46827,-4.51151,-0.409189,-0.357724,-0.218145
9445,-1.62105,0,-9.04508,-1.70971,2.44029,-4.51919,-0.406921,-0.354546,-0.217174
9446,-1.62309,0,-9.04402,-1.6925,2.41274,-4.52002,-0.404752,-0.352701,-0.215632
9447,-1.62513,0,-9.04296,-1.67094,2.37967,-4.51296,-0.401436,-0.351548,-0.213109
9448,-1.62716,0,-9.0419,-1.64306,2.33349,-4.49655,-0.398041,-0.35108,-0.210846
9449,-1.6292,0,-9.04083,-1.61188,2.28851,-4.48851,-0.39486,-0.348791,-0.208647
9450,-1.63123,0,-9.03977,-1.57834,2.24019,-4.45891,-0.390704,-0.350061,-0.204689
9451,-1.63326,0,-9.03871,-1.54146,2.19046,-4.44275,-0.387163,-0.349556,-0.202021
9452,-1.63529,0,-9.03765,-1.50714,2.1347,-4.41517,-0.38247,-0.351688,-0.198725
9453,-1.63732,0,-9.03659,-1.47246,2.08114,-4.40469,-0.378893,-0.352453,-0.196987
9454,-1.63935,0,-9.03553,-1.44053,2.01982,-4.37383,-0.374511,-0.356799,-0.19381
9455,-1.64138,0,-9.03447,-1.40887,1.96429,-4.35551,-0.371006,-0.359788,-0.192299
9456,-1.64341,0,-9.03341,-1.38208,1.91351,-4.33422,-0.366483,-0.36335,-0.189123
9457,-1.64543,0,-9.03235,-1.35572,1.86007,-4.31765,-0.362782,-0.367056,-0.187108
9458,-1.64746,0,-9.03129,-1.33063,1.80578,-4.30461,-0.358135,-0.371037,-0.185174
9459,-1.64948,0,-9.03024,-1.30341,1.74345,-4.28908,-0.352315,-0.375256,-0.183221
9460,-1.65151,0,-9.02918,-1.27602,1.67001,-4.27051,-0.345611,-0.379312,-0.180209
9461,-1.65353,0,-9.02812,-1.25133,1.59265,-4.258,-0.339056,-0.382469,-0.177515
9462,-1.65555,0,-9.02706,-1.23267,1.5204,-4.25186,-0.33346,-0.385291,-0.175353
9463,-1.65757,0,-9.026,-1.21834,1.45548,-4.23918,-0.328482,-0.389463,-0.172359
9464,-1.65959,0,-9.02494,-1.20966,1.3903,-4.22239,-0.324215,-0.395117,-0.168826
9465,-1.66161,0,-9.02389,-1.20496,1.32604,-4.2149,-0.320194,-0.400183,-0.166088
9466,-1.66363,0,-9.02283,-1.20398,1.26224,-4.21129,-0.315995,-0.404174,-0.163761
9467,-1.66564,0,-9.02177,-1.21008,1.20228,-4.21569,-0.312283,-0.407029,-0.161948
9468,-1.66766,0,-9.02072,-1.21755,1.14979,-4.2207,-0.308632,-0.409082,-0.160054
9469,-1.66967,0,-9.01966,-1.22797,1.09818,-4.22148,-0.305495,-0.411494,-0.156753
9470,-1.67169,0,-9.0186,-1.2365,1.04832,-4.21816,-0.303289,-0.414293,-0.15311
9471,-1.6737,0,-9.01755,-1.24546,1.00515,-4.21698,-0.301622,-0.416591,-0.148965
9472,-1.67571,0,-9.01649,-1.25089,0.965528,-4.21495,-0.300651,-0.418712,-0.145335
9473,-1.67772,0,-9.01544,-1.25517,0.932021,-4.22065,-0.299725,-0.419143,-0.142405
9474,-1.67973,0,-9.01438,-1.25984,0.899585,-4.22979,-0.299438,-0.418968,-0.140745
9475,-1.68174,0,-9.01333,-1.26548,0.870157,-4.242,-0.299625,-0.418316,-0.139687
9476,-1.68375,0,-9.01227,-1.2702,0.845222,-4.25308,-0.299842,-0.417369,-0.139224
9477,-1.68575,0,-9.01122,-1.27587,0.821601,-4.26181,-0.300396,-0.416676,-0.138717
9478,-1.68776,0,-9.01016,-1.28087,0.803103,-4.27267,-0.301183,-0.416074,-0.138345
9479,-1.68976,0,-9.00911,-1.28583,0.784529,-4.28033,-0.301829,-0.415761,-0.13788
9480,-1.69177,0,-9.00806,-1.28895,0.767779,-4.28988,-0.302309,-0.415092,-0.137656
9481,-1.69377,0,-9.007,-1.29123,0.752465,-4.29773,-0.302376,-0.414049,-0.136873
9482,-1.69577,0,-9.00595,-1.28785,0.735317,-4.30714,-0.302271,-0.412512,-0.136862
9483,-1.69777,0,-9.0049,-1.28319,0.719681,-4.32158,-0.301783,-0.409184,-0.136613
9484,-1.69977,0,-9.00384,-1.27667,0.706658,-4.33516,-0.301074,-0.40523,-0.136766
9485,-1.70177,0,-9.00279,-1.26874,0.696178,-4.34903,-0.300291,-0.401311,-0.136624
9486,-1.70377,0,-9.00174,-1.25918,0.683434,-4.36279,-0.299831,-0.397379,-0.136987
9487,-1.70576,0,-9.00069,-1.25217,0.673006,-4.37464,-0.29932,-0.393978,-0.13709
9488,-1.70776,0,-8.99964,-1.24366,0.659642,-4.38425,-0.298675,-0.391646,-0.136947
9489,-1.70975,0,-8.99858,-1.23006,0.644475,-4.38568,-0.296761,-0.390255,-0.136032
9490,-1.71175,0,-8.99753,-1.21692,0.624191,-4.39065,-0.294671,-0.388344,-0.134331
9491,-1.71374,0,-8.99648,-1.20232,0.598181,-4.39415,-0.292749,-0.386864,-0.132977
9492,-1.71573,0,-8.99543,-1.18677,0.568801,-4.39776,-0.290547,-0.385205,-0.131376
9493,-1.71772,0,-8.99438,-1.1721,0.535128,-4.40042,-0.2884,-0.383679,-0.129979
9494,-1.71971,0,-8.99333,-1.15758,0.49991,-4.40185,-0.286276,-0.382459,-0.128347
9495,-1.7217,0,-8.99228,-1.14712,0.468815,-4.40561,-0.28407,-0.381264,-0.125154
9496,-1.72369,0,-8.99123,-1.14061,0.436881,-4.40339,-0.28211,-0.380782,-0.120068
9497,-1.72567,0,-8.99018,-1.13274,0.402371,-4.40013,-0.280329,-0.380763,-0.114586
9498,-1.72766,0,-8.98913,-1.1239,0.365932,-4.39948,-0.278623,-0.37986,-0.109792
9499,-1.72964,0,-8.98808,-1.11797,0.328702,-4.40275,-0.276983,-0.378334,-0.10488
9500,-1.73163,0,-8.98704,-1.1137,0.290052,-4.40468,-0.275605,-0.376659,-0.100207
9501,-1.73361,0,-8.98599,-1.10956,0.252051,-4.41084,-0.274481,-0.374395,-0.0962067
9502,-1.73559,0,-8.98494,-1.10889,0.217608,-4.4183,-0.273274,-0.371825,-0.0916477
9503,-1.73757,0,-8.98389,-1.10648,0.180354,-4.42408,-0.272043,-0.369689,-0.0865262
9504,-1.73955,0,-8.98284,-1.09861,0.139862,-4.43078,-0.270641,-0.366942,-0.0816009
9505,-1.74153,0,-8.9818,-1.09253,0.100037,-4.44238,-0.269068,-0.363032,-0.0759376
9506,-1.74351,0,-8.98075,-1.08455,0.0602301,-4.45341,-0.267456,-0.359136,-0.0701432
9507,-1.74549,0,-8.9797,-1.07576,0.0204588,-4.46496,-0.265746,-0.354713,-0.064
9508,-1.74746,0,-8.97865,-1.06715,-0.0194392,-4.47721,-0.264251,-0.350337,-0.057302
9509,-1.74944,0,-8.97761,-1.05754,-0.0584769,-4.48911,-0.263088,-0.346183,-0.0509478
9510,-1.75141,0,-8.97656,-1.04393,-0.0987974,-4.50195,-0.262319,-0.341785,-0.0467668
9511,-1.75339,0,-8.97552,-1.03931,-0.135616,-4.51699,-0.261668,-0.336316,-0.0435945
9512,-1.75536,0,-8.97447,-1.03221,-0.169304,-4.53407,-0.260885,-0.330618,-0.0414766
9513,-1.75733,0,-8.97342,-1.02424,-0.202552,-4.55247,-0.260142,-0.32523,-0.0391215
9514,-1.7593,0,-8.97238,-1.01242,-0.234659,-4.57137,-0.259115,-0.320176,-0.0365155
9515,-1.76127,0,-8.97133,-0.999779,-0.268378,-4.58956,-0.258402,-0.315329,-0.0338826
9516,-1.76324,0,-8.97029,-0.982285,-0.298331,-4.61111,-0.257008,-0.310451,-0.0300232
9517,-1.7652,0,-8.96924,-0.960141,-0.331249,-4.63472,-0.255263,-0.305283,-0.0243772
9518,-1.76717,0,-8.9682,-0.934434,-0.367152,-4.6608,-0.253339,-0.299457,-0.017996
9519,-1.76914,0,-8.96716,-0.907394,-0.40514,-4.68406,-0.251458,-0.294054,-0.0115706
9520,-1.7711,0,-8.96611,-0.879199,-0.445261,-4.70781,-0.24999,-0.287944,-0.00674614
9521,-1.77306,0,-8.96507,-0.851979,-0.483493,-4.73506,-0.248879,-0.281003,-0.00334726
9522,-1.77503,0,-8.96402,-0.82476,-0.521161,-4.76441,-0.248149,-0.273534,-0.000948311
9523,-1.77699,0,-8.96298,-0.797207,-0.558062,-4.79879,-0.247364,-0.264776,-0.000157564
9524,-1.77895,0,-8.96194,-0.772603,-0.597688,-4.82889,-0.24715,-0.256084,-0.000851547
9525,-1.78091,0,-8.9609,-0.750084,-0.631356,-4.86015,-0.246826,-0.247822,-0.00160489
9526,-1.78287,0,-8.95985,-0.728652,-0.658926,-4.89215,-0.246297,-0.240521,-0.00155553
9527,-1.78483,0,-8.95881,-0.709602,-0.68443,-4.92322,-0.246137,-0.233745,-0.000947331
9528,-1.78678,0,-8.95777,-0.69016,-0.702842,-4.95713,-0.245699,-0.227562,0.000873197
9529,-1.78874,0,-8.95673,-0.670253,-0.72328,-4.98363,-0.245808,-0.222926,0.00315921
9530,-1.79069,0,-8.95569,-0.647548,-0.738402,-5.01113,-0.245445,-0.219143,0.00544917
9531,-1.79265,0,-8.95465,-0.628687,-0.756195,-5.0305,-0.245895,-0.216409,0.00681078
9532,-1.7946,0,-8.9536,-0.612676,-0.776452,-5.04439,-0.247165,-0.213704,0.00646537
9533,-1.79655,0,-8.95256,-0.601306,-0.792873,-5.05681,-0.248576,-0.210561,0.00517191
9534,-1.7985,0,-8.95152,-0.591989,-0.808464,-5.06703,-0.249901,-0.207793,0.00366216
9535,-1.80045,0,-8.95048,-0.583905,-0.822273,-5.0751,-0.250608,-0.205677,0.00292033
9536,-1.8024,0,-8.94944,-0.57742,-0.837783,-5.08154,-0.251117,-0.204358,0.0028746
9537,-1.80435,0,-8.9484,-0.571899,-0.852915,-5.08436,-0.251649,-0.20401,0.00289163
9538,-1.8063,0,-8.94736,-0.569063,-0.870301,-5.08332,-0.252341,-0.204462,0.00300279
9539,-1.80825,0,-8.94632,-0.567977,-0.887975,-5.08062,-0.253042,-0.205265,0.00321799
9540,-1.81019,0,-8.94529,-0.567451,-0.90639,-5.07528,-0.253847,-0.206793,0.0038574
9541,-1.81214,0,-8.94425,-0.567558,-0.924346,-5.06391,-0.254962,-0.209346,0.0044116
9542,-1.81408,0,-8.94321,-0.569168,-0.939616,-5.05416,-0.256053,-0.212327,0.00513296
9543,-1.81602,0,-8.94217,-0.568846,-0.952855,-5.04832,-0.256546,-0.214839,0.00631235
9544,-1.81796,0,-8.94113,-0.569845,-0.97109,-5.03588,-0.257329,-0.217481,0.00758933
9545,-1.8199,0,-8.94009,-0.569811,-0.988412,-5.02562,-0.257964,-0.21961,0.00873303
9546,-1.82184,0,-8.93906,-0.56853,-1.0058,-5.01536,-0.258196,-0.221925,0.0107874
9547,-1.82378,0,-8.93802,-0.566062,-1.0253,-5.00604,-0.257971,-0.223707,0.0133428
9548,-1.82572,0,-8.93698,-0.561318,-1.04915,-4.99954,-0.257484,-0.224042,0.0164085
9549,-1.82766,0,-8.93595,-0.557465,-1.07535,-4.99103,-0.256783,-0.223873,0.020138
9550,-1.82959,0,-8.93491,-0.552759,-1.10142,-4.98139,-0.256052,-0.224186,0.0241075
9551,-1.83153,0,-8.93387,-0.550867,-1.12444,-4.97701,-0.25457,-0.223141,0.0293191
9552,-1.83346,0,-8.93284,-0.547505,-1.15225,-4.9697,-0.253005,-0.221887,0.0351116
9553,-1.8354,0,-8.9318,-0.541618,-1.18197,-4.96572,-0.251357,-0.21957,0.0406057
9554,-1.83733,0,-8.93076,-0.534932,-1.21186,-4.96587,-0.249584,-0.216362,0.0461818
9555,-1.83926,0,-8.92973,-0.527933,-1.24347,-4.9668,-0.24748,-0.212777,0.0530058
9556,-1.84119,0,-8.92869,-0.51795,-1.27814,-4.96514,-0.245326,-0.209244,0.0598454
9557,-1.84312,0,-8.92766,-0.507996,-1.31412,-4.96508,-0.243325,-0.20529,0.067034
9558,-1.84505,0,-8.92662,-0.497464,-1.35174,-4.96176,-0.241213,-0.201537,0.0747699
9559,-1.84698,0,-8.92559,-0.487736,-1.38832,-4.95535,-0.238035,-0.198321,0.0844705
9560,-1.8489,0,-8.92456,-0.481443,-1.42988,-4.93518,-0.23493,-0.195711,0.0943721
9561,-1.85083,0,-8.92352,-0.477756,-1.47481,-4.90863,-0.232332,-0.192888,0.103163
9562,-1.85275,0,-8.92249,-0.471022,-1.52313,-4.87423,-0.230542,-0.190405,0.110062
9563,-1.85468,0,-8.92145,-0.463408,-1.56697,-4.85046,-0.228791,-0.187408,0.117605
9564,-1.8566,0,-8.92042,-0.452555,-1.60467,-4.8364,-0.226435,-0.185001,0.127259
9565,-1.85852,0,-8.91939,-0.440273,-1.641,-4.82811,-0.224089,-0.182546,0.137329
9566,-1.86044,0,-8.91836,-0.424753,-1.67795,-4.81984,-0.222479,-0.179735,0.145175
9567,-1.86236,0,-8.91732,-0.409554,-1.71412,-4.81278,-0.22131,-0.176954,0.152203
9568,-1.86428,0,-8.91629,-0.391857,-1.7527,-4.80415,-0.220615,-0.174178,0.157193
9569,-1.8662,0,-8.91526,-0.375098,-1.79402,-4.79104,-0.220109,-0.17078,0.160661
9570,-1.86812,0,-8.91423,-0.360697,-1.83141,-4.78422,-0.219231,-0.167234,0.164727
9571,-1.87003,0,-8.9132,-0.346139,-1.86748,-4.77487,-0.218612,-0.164316,0.168191
9572,-1.87195,0,-8.91216,-0.333723,-1.89928,-4.77081,-0.218185,-0.161168,0.171149
9573,-1.87386,0,-8.91113,-0.321782,-1.92842,-4.76931,-0.217786,-0.158103,0.17377
9574,-1.87578,0,-8.9101,-0.310417,-1.95398,-4.76985,-0.217081,-0.15563,0.176624
9575,-1.87769,0,-8.90907,-0.299662,-1.98166,-4.76083,-0.216764,-0.153977,0.178963
9576,-1.8796,0,-8.90804,-0.290185,-2.00606,-4.75508,-0.21659,-0.152327,0.181926
9577,-1.88151,0,-8.90701,-0.277537,-2.02934,-4.74733,-0.216242,-0.151558,0.185151
9578,-1.88342,0,-8.90598,-0.264859,-2.0511,-4.7432,-0.215991,-0.150875,0.188517
9579,-1.88533,0,-8.90495,-0.250307,-2.07191,-4.74112,-0.21597,-0.150032,0.191521
9580,-1.88724,0,-8.90392,-0.236189,-2.09054,-4.74408,-0.217032,-0.14879,0.193374
9581,-1.88915,0,-8.90289,-0.219517,-2.10735,-4.75257,-0.218921,-0.14712,0.19314
9582,-1.89105,0,-8.90186,-0.203678,-2.12164,-4.76931,-0.220973,-0.144986,0.192071
9583,-1.89296,0,-8.90083,-0.18688,-2.13603,-4.78781,-0.223421,-0.142905,0.190211
9584,-1.89486,0,-8.89981,-0.168935,-2.15058,-4.80592,-0.225782,-0.140824,0.187416
9585,-1.89677,0,-8.89878,-0.152268,-2.16487,-4.82519,-0.227559,-0.138679,0.185408
9586,-1.89867,0,-8.89775,-0.135963,-2.18028,-4.83782,-0.228942,-0.137004,0.183429
9587,-1.90057,0,-8.89672,-0.124251,-2.19305,-4.85514,-0.230242,-0.135049,0.182905
9588,-1.90247,0,-8.89569,-0.109411,-2.2069,-4.86636,-0.231608,-0.133997,0.182224
9589,-1.90437,0,-8.89467,-0.0910063,-2.22486,-4.87105,-0.234076,-0.132877,0.179993
9590,-1.90627,0,-8.89364,-0.074836,-2.23459,-4.89591,-0.235745,-0.131058,0.178557
9591,-1.90817,0,-8.89261,-0.0552577,-2.24726,-4.91403,-0.237182,-0.130128,0.175745
9592,-1.91007,0,-8.89159,-0.0430949,-2.26502,-4.92628,-0.23979,-0.128309,0.172332
9593,-1.91196,0,-8.89056,-0.0333666,-2.27684,-4.9486,-0.240891,-0.126277,0.16921
9594,-1.91386,0,-8.88953,-0.0157472,-2.29129,-4.96662,-0.241438,-0.12493,0.16608
9595,-1.91575,0,-8.88851,0.00341507,-2.3097,-4.97796,-0.242715,-0.124068,0.162288
9596,-1.91765,0,-8.88748,0.0138236,-2.32515,-4.99188,-0.241312,-0.122058,0.162597
9597,-1.91954,0,-8.88646,0.0208325,-2.3432,-4.99847,-0.239156,-0.120929,0.165308
9598,-1.92143,0,-8.88543,0.0387187,-2.36881,-4.98742,-0.235238,-0.120035,0.167418
9599,-1.92332,0,-8.88441,0.0491349,-2.39347,-4.97244,-0.229318,-0.119882,0.173913
9600,-1.92521,0,-8.88338,0.0632572,-2.42367,-4.94272,-0.223359,-0.120591,0.180256
9601,-1.9271,0,-8.88236,0.0759079,-2.4589,-4.90066,-0.212169,-0.120087,0.191007
9602,-1.92899,0,-8.88133,0.0960817,-2.50487,-4.8431,-0.200825,-0.121143,0.200422
9603,-1.93088,0,-8.88031,0.105871,-2.55584,-4.77528,-0.190105,-0.122396,0.212444
9604,-1.93276,0,-8.87929,0.130392,-2.61312,-4.6891,-0.181278,-0.123695,0.21915
9605,-1.93465,0,-8.87826,0.15867,-2.67638,-4.59001,-0.168258,-0.125276,0.230805
9606,-1.93653,0,-8.87724,0.194947,-2.76053,-4.45833,-0.150591,-0.127576,0.244562
9607,-1.93842,0,-8.87622,0.237541,-2.86034,-4.29169,-0.13258,-0.130146,0.25936
9608,-1.9403,0,-8.87519,0.297755,-2.97713,-4.08018,-0.114963,-0.133757,0.27398
9609,-1.94218,0,-8.87417,0.367947,-3.09624,-3.84981,-0.0973402,-0.138225,0.289842
9610,-1.94406,0,-8.87315,0.449975,-3.21924,-3.59878,-0.0788652,-0.143179,0.305911
9611,-1.94594,0,-8.87213,0.533572,-3.33831,-3.33928,-0.0626538,-0.148586,0.319571
9612,-1.94782,0,-8.8711,0.614514,-3.44937,-3.08181,-0.0489441,-0.153942,0.330688
9613,-1.9497,0,-8.87008,0.698141,-3.55664,-2.81781,-0.0351008,-0.159516,0.342645
9614,-1.95158,0,-8.86906,0.788075,-3.66092,-2.54602,-0.0212181,-0.165927,0.355484
9615,-1.95345,0,-8.86804,0.886903,-3.76648,-2.25976,-0.00603785,-0.172663,0.370259
9616,-1.95533,0,-8.86702,0.987658,-3.86133,-1.98148,0.0079993,-0.180286,0.385326
9617,-1.9572,0,-8.866,1.07996,-3.93359,-1.74307,0.0177394,-0.187158,0.395025
9618,-1.95908,0,-8.86498,1.16375,-3.98334,-1.5504,0.0246918,-0.192621,0.40092
9619,-1.96095,0,-8.86396,1.23197,-4.00845,-1.40125,0.0267637,-0.197258,0.402736
9620,-1.96282,0,-8.86294,1.29414,-4.02208,-1.27786,0.0277248,-0.200955,0.402727
9621,-1.96469,0,-8.86192,1.35146,-4.02657,-1.17433,0.0272617,-0.204125,0.400778
9622,-1.96656,0,-8.8609,1.4044,-4.02792,-1.08322,0.0276483,-0.206664,0.399064
9623,-1.96843,0,-8.85988,1.45061,-4.02321,-1.01054,0.02666,-0.20884,0.395537
9624,-1.9703,0,-8.85886,1.49226,-4.01584,-0.946792,0.0246133,-0.210503,0.390384
9625,-1.97217,0,-8.85784,1.52995,-4.00482,-0.895133,0.0232604,-0.211756,0.386737
9626,-1.97403,0,-8.85682,1.56672,-3.99417,-0.849496,0.0232508,-0.212653,0.384323
9627,-1.9759,0,-8.8558,1.5975,-3.98253,-0.810391,0.0230523,-0.21325,0.381953
9628,-1.97776,0,-8.85479,1.62133,-3.96199,-0.794292,0.0211807,-0.213322,0.378556
9629,-1.97963,0,-8.85377,1.64568,-3.93386,-0.804121,0.0191155,-0.212777,0.374449
9630,-1.98149,0,-8.85275,1.66209,-3.90941,-0.810944,0.017556,-0.212247,0.371085
9631,-1.98335,0,-8.85173,1.67892,-3.88841,-0.815858,0.0160696,-0.211518,0.367552
9632,-1.98521,0,-8.85072,1.69979,-3.87692,-0.810333,0.0167498,-0.210694,0.36506
9633,-1.98707,0,-8.8497,1.71394,-3.86441,-0.806338,0.017059,-0.209992,0.363549
9634,-1.98893,0,-8.84868,1.72212,-3.84411,-0.81333,0.0162963,-0.209437,0.363117
9635,-1.99079,0,-8.84767,1.73442,-3.82115,-0.827083,0.0149583,-0.208894,0.362236
9636,-1.99265,0,-8.84665,1.75039,-3.80869,-0.827932,0.0164856,-0.208573,0.363079
9637,-1.99451,0,-8.84563,1.76273,-3.79812,-0.826463,0.0183809,-0.208379,0.364876
9638,-1.99636,0,-8.84462,1.77314,-3.78448,-0.830051,0.019238,-0.208188,0.365924
9639,-1.99822,0,-8.8436,1.78848,-3.78294,-0.80922,0.0214805,-0.208679,0.367114
9640,-2.00007,0,-8.84259,1.80215,-3.78596,-0.779061,0.0246556,-0.209372,0.36905
9641,-2.00193,0,-8.84157,1.82121,-3.79943,-0.727785,0.0296464,-0.210538,0.371626
9642,-2.00378,0,-8.84056,1.84107,-3.82311,-0.645374,0.0350083,-0.212769,0.375989
9643,-2.00563,0,-8.83954,1.87045,-3.86035,-0.530734,0.0410417,-0.215597,0.37936
9644,-2.00748,0,-8.83853,1.90411,-3.90897,-0.384831,0.0482812,-0.219566,0.384054
9645,-2.00933,0,-8.83751,1.94613,-3.9735,-0.190382,0.0570445,-0.224677,0.391293
9646,-2.01118,0,-8.8365,1.99303,-4.04365,0.0367253,0.0658015,-0.231082,0.400506
9647,-2.01303,0,-8.83549,2.05334,-4.11867,0.293734,0.0746919,-0.238836,0.411914
9648,-2.01487,0,-8.83447,2.1196,-4.18858,0.553634,0.0834331,-0.247431,0.425174
9649,-2.01672,0,-8.83346,2.18608,-4.24989,0.803698,0.0920274,-0.256077,0.438874
9650,-2.01857,0,-8.83245,2.2459,-4.29856,1.03623,0.0993486,-0.264809,0.453696
9651,-2.02041,0,-8.83143,2.29659,-4.33135,1.24046,0.105339,-0.273648,0.470416
9652,-2.02225,0,-8.83042,2.33225,-4.34823,1.42228,0.108418,-0.28273,0.488582
9653,-2.0241,0,-8.82941,2.36719,-4.35821,1.59052,0.109896,-0.291452,0.504419
9654,-2.02594,0,-8.8284,2.40787,-4.36495,1.74672,0.11045,-0.29898,0.515588
9655,-2.02778,0,-8.82739,2.45392,-4.37155,1.89491,0.110709,-0.305199,0.522109
9656,-2.02962,0,-8.82637,2.50144,-4.37684,2.03304,0.110441,-0.310428,0.524837
9657,-2.03146,0,-8.82536,2.5492,-4.38035,2.16193,0.110069,-0.314704,0.525146
9658,-2.0333,0,-8.82435,2.59408,-4.37567,2.26805,0.109368,-0.318134,0.524708
9659,-2.03514,0,-8.82334,2.63905,-4.36605,2.35586,0.108717,-0.320564,0.523024
9660,-2.03697,0,-8.82233,2.68405,-4.35247,2.42814,0.107938,-0.32249,0.520202
9661,-2.03881,0,-8.82132,2.72763,-4.33585,2.48806,0.106752,-0.323971,0.516241
9662,-2.04064,0,-8.82031,2.76793,-4.31464,2.5362,0.105263,-0.325037,0.512086
9663,-2.04248,0,-8.8193,2.80492,-4.2874,2.56804,0.103146,-0.32592,0.508015
9664,-2.04431,0,-8.81829,2.83928,-4.2556,2.58972,0.100999,-0.326655,0.504626
9665,-2.04614,0,-8.81728,2.87127,-4.21889,2.59441,0.0982871,-0.327027,0.500877
9666,-2.04797,0,-8.81627,2.90248,-4.18193,2.59548,0.0954672,-0.327187,0.496776
9667,-2.0498,0,-8.81526,2.93272,-4.14539,2.58989,0.0926061,-0.3271,0.492525
9668,-2.05163,0,-8.81425,2.95786,-4.10922,2.5802,0.0901589,-0.326737,0.489307
9669,-2.05346,0,-8.81324,2.98361,-4.0773,2.57265,0.0882587,-0.326251,0.486083
9670,-2.05529,0,-8.81224,3.00536,-4.04696,2.56193,0.0863187,-0.325654,0.483003
9671,-2.05712,0,-8.81123,3.02428,-4.01682,2.55115,0.0836929,-0.325175,0.479765
9672,-2.05895,0,-8.81022,3.04151,-3.98379,2.53006,0.0810355,-0.324397,0.476353
9673,-2.06077,0,-8.80921,3.05221,-3.94412,2.4816,0.0781708,-0.322697,0.472399
9674,-2.0626,0,-8.80821,3.06515,-3.90999,2.43599,0.075558,-0.320895,0.467574
9675,-2.06442,0,-8.8072,3.07536,-3.8842,2.40526,0.0734481,-0.319301,0.463652
9676,-2.06624,0,-8.80619,3.08546,-3.86661,2.3821,0.0726469,-0.317722,0.460783
9677,-2.06806,0,-8.80518,3.09493,-3.85385,2.36761,0.0727098,-0.316351,0.459075
9678,-2.06989,0,-8.80418,3.10313,-3.84316,2.35564,0.0729921,-0.315052,0.457708
9679,-2.07171,0,-8.80317,3.11132,-3.83396,2.34636,0.0729473,-0.313938,0.456087
9680,-2.07352,0,-8.80217,3.11835,-3.82513,2.33387,0.072457,-0.312724,0.453724
9681,-2.07534,0,-8.80116,3.12552,-3.81714,2.32364,0.0715782,-0.311462,0.450584
9682,-2.07716,0,-8.80015,3.13111,-3.80736,2.30819,0.0700849,-0.31021,0.447304
9683,-2.07898,0,-8.79915,3.13467,-3.79513,2.28949,0.0684287,-0.308967,0.444356
9684,-2.08079,0,-8.79814,3.13831,-3.77976,2.26408,0.0659938,-0.30785,0.441111
9685,-2.08261,0,-8.79714,3.14304,-3.76442,2.23393,0.0637839,-0.306593,0.438057
9686,-2.08442,0,-8.79613,3.14367,-3.74637,2.19223,0.0618691,-0.304918,0.435371
9687,-2.08624,0,-8.79513,3.14395,-3.73093,2.15333,0.0608415,-0.303327,0.433642
9688,-2.08805,0,-8.79413,3.1417,-3.71668,2.11893,0.0600302,-0.302276,0.433409
9689,-2.08986,0,-8.79312,3.14201,-3.70395,2.08516,0.0595101,-0.301321,0.433111
9690,-2.09167,0,-8.79212,3.14027,-3.69013,2.05156,0.0585837,-0.300607,0.433097
9691,-2.09348,0,-8.79111,3.13842,-3.67586,2.02458,0.0572769,-0.300303,0.43331
9692,-2.09529,0,-8.79011,3.13316,-3.65376,1.97418,0.055447,-0.299581,0.432956
9693,-2.0971,0,-8.78911,3.12191,-3.62592,1.90662,0.0534592,-0.298363,0.432998
9694,-2.09891,0,-8.7881,3.11151,-3.59984,1.84354,0.0511887,-0.297181,0.432595
9695,-2.10071,0,-8.7871,3.10203,-3.57647,1.78303,0.0491254,-0.296047,0.432162
9696,-2.10252,0,-8.7861,3.09017,-3.5537,1.72103,0.0473147,-0.294897,0.432099
9697,-2.10433,0,-8.7851,3.07762,-3.53412,1.66479,0.045789,-0.293895,0.432346
9698,-2.10613,0,-8.7841,3.06441,-3.5152,1.6112,0.0445211,-0.293165,0.433746
9699,-2.10793,0,-8.78309,3.05049,-3.49515,1.55988,0.0428299,-0.292591,0.435549
9700,-2.10974,0,-8.78209,3.03657,-3.47122,1.49402,0.0408531,-0.291507,0.435672
9701,-2.11154,0,-8.78109,3.01458,-3.44181,1.4138,0.0376457,-0.289703,0.434992
9702,-2.11334,0,-8.78009,2.99083,-3.40966,1.32014,0.034344,-0.287626,0.434049
9703,-2.11514,0,-8.77909,2.96144,-3.37502,1.21759,0.0309275,-0.285073,0.433235
9704,-2.11694,0,-8.77809,2.93235,-3.34298,1.12174,0.0272401,-0.282786,0.43236
9705,-2.11874,0,-8.77709,2.90256,-3.31357,1.03282,0.0233458,-0.280662,0.431659
9706,-2.12053,0,-8.77609,2.87568,-3.29121,0.95693,0.0200046,-0.278754,0.431364
9707,-2.12233,0,-8.77509,2.84996,-3.26914,0.884012,0.0163267,-0.277144,0.430632
9708,-2.12413,0,-8.77409,2.82072,-3.24394,0.797216,0.0128297,-0.274817,0.429757
9709,-2.12592,0,-8.77309,2.79027,-3.21779,0.705481,0.00962075,-0.272511,0.429627
9710,-2.12771,0,-8.77209,2.75604,-3.19216,0.608502,0.00635757,-0.269673,0.428499
9711,-2.12951,0,-8.77109,2.72066,-3.16711,0.510267,0.00283342,-0.26677,0.426937
9712,-2.1313,0,-8.77009,2.68086,-3.13792,0.399307,-0.00210574,-0.263546,0.423556
9713,-2.13309,0,-8.76909,2.63341,-3.10187,0.271011,-0.00835304,-0.259758,0.419407
9714,-2.13488,0,-8.7681,2.58606,-3.06289,0.131081,-0.0151767,-0.255624,0.414058
9715,-2.13667,0,-8.7671,2.535,-3.02422,-0.010121,-0.0221877,-0.251233,0.408959
9716,-2.13846,0,-8.7661,2.48635,-2.98832,-0.148074,-0.0289497,-0.247062,0.404082
9717,-2.14025,0,-8.7651,2.43469,-2.95218,-0.291001,-0.0360614,-0.242798,0.399082
9718,-2.14204,0,-8.76411,2.37918,-2.91338,-0.442476,-0.0436006,-0.238285,0.39397
9719,-2.14382,0,-8.76311,2.32417,-2.8736,-0.597733,-0.0512612,-0.233787,0.389013
9720,-2.14561,0,-8.76211,2.26886,-2.8336,-0.753819,-0.0597065,-0.229419,0.38409
9721,-2.14739,0,-8.76111,2.21834,-2.79399,-0.905711,-0.0689867,-0.225512,0.378722
9722,-2.14918,0,-8.76012,2.17028,-2.75412,-1.05979,-0.079188,-0.221611,0.371719
9723,-2.15096,0,-8.75912,2.12124,-2.7147,-1.21373,-0.090205,-0.217607,0.363606
9724,-2.15274,0,-8.75813,2.07146,-2.67516,-1.37101,-0.101547,-0.213359,0.354443
9725,-2.15453,0,-8.75713,2.02201,-2.63801,-1.52654,-0.112728,-0.209145,0.345264
9726,-2.15631,0,-8.75613,1.97251,-2.60343,-1.68156,-0.124128,-0.204842,0.335218
9727,-2.15809,0,-8.75514,1.9234,-2.57392,-1.82948,-0.13487,-0.2004,0.324981
9728,-2.15987,0,-8.75414,1.87349,-2.54726,-1.97365,-0.145171,-0.196027,0.315272
9729,-2.16164,0,-8.75315,1.82789,-2.52477,-2.10825,-0.154853,-0.192067,0.306736
9730,-2.16342,0,-8.75215,1.78486,-2.50224,-2.24487,-0.164531,-0.188743,0.299295
9731,-2.1652,0,-8.75116,1.7475,-2.48273,-2.37724,-0.174422,-0.185389,0.290658
9732,-2.16697,0,-8.75017,1.71165,-2.46155,-2.51622,-0.18362,-0.182101,0.282267
9733,-2.16875,0,-8.74917,1.6759,-2.44142,-2.65487,-0.193149,-0.179077,0.273858
9734,-2.17052,0,-8.74818,1.64104,-2.42261,-2.79576,-0.202464,-0.175695,0.264011
9735,-2.1723,0,-8.74718,1.60363,-2.40625,-2.92909,-0.211683,-0.172433,0.25481
9736,-2.17407,0,-8.74619,1.56913,-2.39237,-3.05568,-0.219742,-0.169415,0.245899
9737,-2.17584,0,-8.7452,1.53145,-2.37926,-3.17821,-0.226859,-0.166582,0.239104
9738,-2.17761,0,-8.74421,1.50011,-2.37068,-3.28876,-0.232988,-0.164338,0.232532
9739,-2.17938,0,-8.74321,1.46579,-2.36123,-3.39986,-0.238862,-0.162055,0.225884
9740,-2.18115,0,-8.74222,1.42751,-2.35019,-3.51261,-0.244463,-0.159381,0.219059
9741,-2.18292,0,-8.74123,1.38645,-2.3385,-3.62609,-0.250094,-0.156481,0.211582
9742,-2.18469,0,-8.74024,1.3444,-2.32612,-3.73965,-0.255351,-0.153318,0.203802
9743,-2.18645,0,-8.73924,1.30214,-2.31321,-3.85002,-0.259867,-0.1503,0.19671
9744,-2.18822,0,-8.73825,1.25948,-2.30242,-3.95072,-0.263949,-0.147567,0.191106
9745,-2.18998,0,-8.73726,1.22015,-2.29218,-4.044,-0.267319,-0.145531,0.186575
9746,-2.19175,0,-8.73627,1.18276,-2.28475,-4.12781,-0.270238,-0.143621,0.182817
9747,-2.19351,0,-8.73528,1.14698,-2.27603,-4.20873,-0.272598,-0.142282,0.180919
9748,-2.19527,0,-8.73429,1.11629,-2.2697,-4.27987,-0.274609,-0.141654,0.179671
9749,-2.19704,0,-8.7333,1.08352,-2.26252,-4.34583,-0.276453,-0.140812,0.177988
9750,-2.1988,0,-8.73231,1.0477,-2.25357,-4.40947,-0.278263,-0.139637,0.17553
9751,-2.20056,0,-8.73132,1.00748,-2.24117,-4.47269,-0.280148,-0.138286,0.172239
9752,-2.20232,0,-8.73033,0.962662,-2.2264,-4.53275,-0.282142,-0.136586,0.167329
9753,-2.20408,0,-8.72934,0.91334,-2.20821,-4.59271,-0.284446,-0.135008,0.16153
9754,-2.20583,0,-8.72835,0.862219,-2.18688,-4.65079,-0.286738,-0.133944,0.155355
9755,-2.20759,0,-8.72736,0.806113,-2.16316,-4.70081,-0.289125,-0.133289,0.148633
9756,-2.20935,0,-8.72637,0.745232,-2.13573,-4.73577,-0.291138,-0.13439,0.143431
9757,-2.2111,0,-8.72538,0.682344,-2.10366,-4.75582,-0.292824,-0.138252,0.140522
9758,-2.21286,0,-8.7244,0.619754,-2.07133,-4.76342,-0.294406,-0.143625,0.138716
9759,-2.21461,0,-8.72341,0.555679,-2.03506,-4.7643,-0.295879,-0.149958,0.137506
9760,-2.21636,0,-8.72242,0.486135,-1.99531,-4.75963,-0.297493,-0.157052,0.136742
9761,-2.21812,0,-8.72143,0.415916,-1.95194,-4.75778,-0.299183,-0.163281,0.134773
9762,-2.21987,0,-8.72044,0.341829,-1.90666,-4.75616,-0.300847,-0.168624,0.13203
9763,-2.22162,0,-8.71946,0.265546,-1.85833,-4.76339,-0.302421,-0.172217,0.12837
9764,-2.22337,0,-8.71847,0.189227,-1.811,-4.7681,-0.303921,-0.175369,0.123961
9765,-2.22512,0,-8.71748,0.111091,-1.7627,-4.77115,-0.305257,-0.178787,0.119989
9766,-2.22686,0,-8.7165,0.0328168,-1.71535,-4.77137,-0.306521,-0.182096,0.114972
9767,-2.22861,0,-8.71551,-0.0498156,-1.66536,-4.76904,-0.307877,-0.185817,0.109193
9768,-2.23036,0,-8.71452,-0.135019,-1.61534,-4.76475,-0.309343,-0.188582,0.101761
9769,-2.2321,0,-8.71354,-0.221786,-1.55843,-4.76488,-0.31068,-0.19252,0.0965619
9770,-2.23385,0,-8.71255,-0.30343,-1.49714,-4.77162,-0.312056,-0.196247,0.0919604
9771,-2.23559,0,-8.71157,-0.383108,-1.43478,-4.7789,-0.31351,-0.200048,0.0886003
9772,-2.23734,0,-8.71058,-0.45574,-1.37372,-4.78576,-0.315066,-0.203938,0.085033
9773,-2.23908,0,-8.7096,-0.524439,-1.31361,-4.79139,-0.31675,-0.207338,0.0800416
9774,-2.24082,0,-8.70861,-0.590816,-1.25305,-4.79663,-0.318484,-0.210428,0.073864
9775,-2.24256,0,-8.70763,-0.659609,-1.18768,-4.80665,-0.320207,-0.21259,0.0668018
9776,-2.2443,0,-8.70664,-0.72724,-1.12237,-4.81236,-0.322257,-0.215197,0.057734
9777,-2.24604,0,-8.70566,-0.79847,-1.05247,-4.82276,-0.324866,-0.217113,0.0469738
9778,-2.24778,0,-8.70467,-0.868603,-0.976149,-4.83274,-0.327796,-0.219338,0.0355205
9779,-2.24952,0,-8.70369,-0.931918,-0.897976,-4.8418,-0.330754,-0.22095,0.0242948
9780,-2.25125,0,-8.70271,-0.990179,-0.818062,-4.85149,-0.333553,-0.222486,0.014562
9781,-2.25299,0,-8.70172,-1.04217,-0.739155,-4.86054,-0.335768,-0.223822,0.00585435
9782,-2.25472,0,-8.70074,-1.09141,-0.665768,-4.86847,-0.338201,-0.225226,-0.00364439
9783,-2.25646,0,-8.69976,-1.1375,-0.593815,-4.87624,-0.340565,-0.227296,-0.0141419
9784,-2.25819,0,-8.69878,-1.18221,-0.52484,-4.88607,-0.342822,-0.22932,-0.0248789
9785,-2.25993,0,-8.69779,-1.22452,-0.457275,-4.89526,-0.344882,-0.231169,-0.0348964
9786,-2.26166,0,-8.69681,-1.26223,-0.391848,-4.90433,-0.346419,-0.232297,-0.0431985
9787,-2.26339,0,-8.69583,-1.29533,-0.33088,-4.90874,-0.347696,-0.233041,-0.0499824
9788,-2.26512,0,-8.69485,-1.31955,-0.274976,-4.90391,-0.3481,-0.234191,-0.0539902
9789,-2.26685,0,-8.69387,-1.33635,-0.227228,-4.89397,-0.347728,-0.23575,-0.0559159
9790,-2.26858,0,-8.69289,-1.34289,-0.190774,-4.88054,-0.346216,-0.237466,-0.0569137
9791,-2.27031,0,-8.6919,-1.34109,-0.163083,-4.86643,-0.343206,-0.238776,-0.056695
9792,-2.27203,0,-8.69092,-1.33048,-0.145157,-4.85345,-0.339221,-0.23941,-0.0560879
9793,-2.27376,0,-8.68994,-1.31401,-0.136139,-4.84357,-0.334778,-0.239185,-0.0555255
9794,-2.27549,0,-8.68896,-1.29127,-0.130439,-4.83434,-0.329845,-0.2386,-0.0546035
9795,-2.27721,0,-8.68798,-1.26474,-0.129955,-4.82732,-0.324714,-0.237426,-0.053178
9796,-2.27893,0,-8.687,-1.23355,-0.134681,-4.82037,-0.319295,-0.237054,-0.0503143
9797,-2.28066,0,-8.68602,-1.19626,-0.148376,-4.81615,-0.313716,-0.236793,-0.0468189
9798,-2.28238,0,-8.68504,-1.15331,-0.167987,-4.81517,-0.308003,-0.236509,-0.0435983
9799,-2.2841,0,-8.68406,-1.11017,-0.192165,-4.81285,-0.303007,-0.23698,-0.0409396
9800,-2.28582,0,-8.68309,-1.06802,-0.21939,-4.8113,-0.298324,-0.237589,-0.038464
9801,-2.28754,0,-8.68211,-1.02958,-0.247768,-4.81049,-0.294224,-0.238396,-0.0364024
9802,-2.28926,0,-8.68113,-0.993728,-0.277569,-4.80976,-0.290738,-0.239392,-0.0347473
9803,-2.29098,0,-8.68015,-0.962764,-0.307095,-4.81151,-0.287564,-0.240601,-0.0326516
9804,-2.2927,0,-8.67917,-0.934342,-0.339069,-4.80858,-0.284962,-0.242743,-0.0305906
9805,-2.29442,0,-8.67819,-0.909907,-0.371674,-4.80347,-0.282883,-0.245703,-0.0281372
9806,-2.29613,0,-8.67722,-0.89237,-0.403005,-4.79792,-0.281195,-0.248593,-0.0249001
9807,-2.29785,0,-8.67624,-0.878026,-0.43178,-4.78896,-0.279766,-0.25263,-0.0215252
9808,-2.29956,0,-8.67526,-0.868684,-0.45986,-4.77791,-0.27866,-0.256287,-0.018511
9809,-2.30128,0,-8.67428,-0.867343,-0.486611,-4.76408,-0.278039,-0.260239,-0.0151194
9810,-2.30299,0,-8.67331,-0.875767,-0.509618,-4.74865,-0.27782,-0.264488,-0.0116495
9811,-2.3047,0,-8.67233,-0.894487,-0.531063,-4.72401,-0.278126,-0.269672,-0.00854415
9812,-2.30641,0,-8.67135,-0.923073,-0.547875,-4.69515,-0.278411,-0.27503,-0.00486468
9813,-2.30813,0,-8.67038,-0.964198,-0.559148,-4.66781,-0.278326,-0.280011,0.00104331
9814,-2.30984,0,-8.6694,-1.01243,-0.566425,-4.63996,-0.277859,-0.285048,0.00793435
9815,-2.31154,0,-8.66843,-1.06878,-0.576759,-4.60477,-0.27742,-0.289143,0.0146472
9816,-2.31325,0,-8.66745,-1.13585,-0.579346,-4.56981,-0.277137,-0.293915,0.0235703
9817,-2.31496,0,-8.66648,-1.21495,-0.575418,-4.53178,-0.27711,-0.299979,0.0344775
9818,-2.31667,0,-8.6655,-1.30111,-0.566608,-4.49505,-0.277371,-0.305583,0.0443622
9819,-2.31837,0,-8.66453,-1.40425,-0.549478,-4.46101,-0.277368,-0.310825,0.0575764
9820,-2.32008,0,-8.66355,-1.50795,-0.533224,-4.4285,-0.277627,-0.315596,0.070712
9821,-2.32178,0,-8.66258,-1.61156,-0.520535,-4.38698,-0.277852,-0.320688,0.0841232
9822,-2.32349,0,-8.6616,-1.72263,-0.502046,-4.34741,-0.278132,-0.326157,0.099495
9823,-2.32519,0,-8.66063,-1.84396,-0.47629,-4.31089,-0.278477,-0.332266,0.117386
9824,-2.32689,0,-8.65965,-1.97006,-0.446661,-4.27428,-0.27916,-0.338567,0.135722
9825,-2.32859,0,-8.65868,-2.09581,-0.416697,-4.23869,-0.280396,-0.344021,0.15205
9826,-2.3303,0,-8.65771,-2.22143,-0.385457,-4.20902,-0.281972,-0.348402,0.167505
9827,-2.332,0,-8.65673,-2.34018,-0.352742,-4.18611,-0.284305,-0.353579,0.182974
9828,-2.33369,0,-8.65576,-2.45023,-0.324412,-4.16516,-0.286542,-0.357276,0.195353
9829,-2.33539,0,-8.65479,-2.55815,-0.296885,-4.14431,-0.288492,-0.360859,0.20714
9830,-2.33709,0,-8.65382,-2.66147,-0.275536,-4.11592,-0.289845,-0.363267,0.217612
9831,-2.33879,0,-8.65284,-2.75888,-0.257625,-4.08664,-0.290822,-0.365119,0.227449
9832,-2.34048,0,-8.65187,-2.84815,-0.239032,-4.06775,-0.292427,-0.367482,0.237518
9833,-2.34218,0,-8.6509,-2.92784,-0.220547,-4.06239,-0.294394,-0.369435,0.24748
9834,-2.34387,0,-8.64993,-2.99977,-0.206061,-4.05747,-0.296477,-0.370752,0.257009
9835,-2.34557,0,-8.64896,-3.06131,-0.192982,-4.06004,-0.299099,-0.371592,0.264729
9836,-2.34726,0,-8.64799,-3.1163,-0.179918,-4.07612,-0.302254,-0.371116,0.271437
9837,-2.34895,0,-8.64702,-3.16017,-0.171915,-4.09241,-0.305268,-0.369847,0.276053
9838,-2.35064,0,-8.64604,-3.19761,-0.168162,-4.11096,-0.307872,-0.366586,0.278502
9839,-2.35233,0,-8.64507,-3.23127,-0.170959,-4.12259,-0.309999,-0.362032,0.27988
9840,-2.35402,0,-8.6441,-3.2599,-0.175214,-4.13465,-0.311815,-0.357348,0.28008
9841,-2.35571,0,-8.64313,-3.28412,-0.182666,-4.14601,-0.313535,-0.352054,0.280094
9842,-2.3574,0,-8.64216,-3.29948,-0.191282,-4.16268,-0.315231,-0.347296,0.280688
9843,-2.35909,0,-8.64119,-3.30016,-0.205089,-4.18414,-0.31656,-0.342779,0.281718
9844,-2.36078,0,-8.64023,-3.28628,-0.2244,-4.20699,-0.317288,-0.337579,0.281972
9845,-2.36246,0,-8.63926,-3.26672,-0.245376,-4.23414,-0.317802,-0.331551,0.281481
9846,-2.36415,0,-8.63829,-3.24599,-0.266078,-4.26061,-0.318211,-0.325056,0.279966
9847,-2.36583,0,-8.63732,-3.22612,-0.286151,-4.27989,-0.318495,-0.318765,0.276893
9848,-2.36752,0,-8.63635,-3.21059,-0.30593,-4.29436,-0.318391,-0.312797,0.273728
9849,-2.3692,0,-8.63538,-3.20146,-0.328166,-4.29914,-0.318271,-0.306908,0.270821
9850,-2.37088,0,-8.63441,-3.19395,-0.346397,-4.30642,-0.318078,-0.302208,0.268443
9851,-2.37256,0,-8.63345,-3.18976,-0.360505,-4.31432,-0.317996,-0.299333,0.268335
9852,-2.37424,0,-8.63248,-3.18673,-0.373894,-4.32037,-0.318218,-0.297321,0.268608
9853,-2.37592,0,-8.63151,-3.18644,-0.382536,-4.3288,-0.318681,-0.296435,0.269725
9854,-2.3776,0,-8.63054,-3.18617,-0.391743,-4.33322,-0.318951,-0.295912,0.269834
9855,-2.37928,0,-8.62958,-3.19175,-0.401229,-4.32931,-0.31912,-0.294594,0.268692
9856,-2.38096,0,-8.62861,-3.20303,-0.408545,-4.32507,-0.319091,-0.293674,0.268393
9857,-2.38264,0,-8.62764,-3.21851,-0.415678,-4.31292,-0.319132,-0.293734,0.269077
9858,-2.38431,0,-8.62668,-3.23537,-0.420788,-4.30115,-0.319072,-0.294784,0.270674
9859,-2.38599,0,-8.62571,-3.25273,-0.42541,-4.28356,-0.318881,-0.297372,0.272865
9860,-2.38766,0,-8.62474,-3.27427,-0.428047,-4.26117,-0.31856,-0.300869,0.275895
9861,-2.38934,0,-8.62378,-3.29626,-0.429905,-4.23375,-0.31808,-0.30496,0.278498
9862,-2.39101,0,-8.62281,-3.31935,-0.427146,-4.21369,-0.31772,-0.309542,0.282088
9863,-2.39268,0,-8.62185,-3.34474,-0.422755,-4.18992,-0.317074,-0.314843,0.286394
9864,-2.39436,0,-8.62088,-3.37546,-0.415873,-4.16458,-0.316551,-0.319521,0.291193
9865,-2.39603,0,-8.61992,-3.41342,-0.404706,-4.1393,-0.315878,-0.323998,0.297298
9866,-2.3977,0,-8.61895,-3.45137,-0.394279,-4.11319,-0.315022,-0.327681,0.302575
9867,-2.39937,0,-8.61799,-3.49414,-0.381507,-4.08722,-0.313498,-0.330922,0.309387
9868,-2.40103,0,-8.61703,-3.54063,-0.366872,-4.05618,-0.310925,-0.334805,0.320208
9869,-2.4027,0,-8.61606,-3.58495,-0.356284,-4.01242,-0.307279,-0.338522,0.332985
9870,-2.40437,0,-8.6151,-3.62941,-0.345377,-3.96367,-0.303251,-0.342278,0.345707
9871,-2.40604,0,-8.61413,-3.67225,-0.33679,-3.90984,-0.29888,-0.34502,0.358371
9872,-2.4077,0,-8.61317,-3.7121,-0.326882,-3.85907,-0.294361,-0.348016,0.371616
9873,-2.40937,0,-8.61221,-3.75026,-0.317886,-3.81039,-0.290132,-0.349946,0.383982
9874,-2.41103,0,-8.61124,-3.78609,-0.308496,-3.76614,-0.286497,-0.351493,0.395169
9875,-2.41269,0,-8.61028,-3.81959,-0.300413,-3.71863,-0.282799,-0.352845,0.407137
9876,-2.41436,0,-8.60932,-3.84473,-0.295034,-3.66845,-0.279256,-0.354547,0.418745
9877,-2.41602,0,-8.60836,-3.85613,-0.29521,-3.61263,-0.275522,-0.356865,0.429479
9878,-2.41768,0,-8.60739,-3.86278,-0.295425,-3.56195,-0.272172,-0.358905,0.43892
9879,-2.41934,0,-8.60643,-3.87016,-0.294827,-3.51686,-0.269092,-0.359814,0.4473
9880,-2.421,0,-8.60547,-3.87538,-0.297618,-3.46377,-0.265924,-0.360174,0.45344
9881,-2.42266,0,-8.60451,-3.88675,-0.297411,-3.41371,-0.263108,-0.359526,0.458491
9882,-2.42432,0,-8.60355,-3.89564,-0.297124,-3.3678,-0.260707,-0.358662,0.462812
9883,-2.42598,0,-8.60259,-3.90496,-0.292851,-3.33451,-0.259202,-0.358116,0.465956
9884,-2.42763,0,-8.60163,-3.91116,-0.289209,-3.30856,-0.257723,-0.357457,0.468453
9885,-2.42929,0,-8.60067,-3.92119,-0.286217,-3.2807,-0.256234,-0.35582,0.470198
9886,-2.43094,0,-8.59971,-3.92896,-0.284144,-3.25569,-0.254692,-0.354274,0.471628
9887,-2.4326,0,-8.59875,-3.93616,-0.28,-3.24021,-0.253677,-0.352914,0.472973
9888,-2.43425,0,-8.59779,-3.94199,-0.273685,-3.23844,-0.253399,-0.35161,0.474963
9889,-2.43591,0,-8.59683,-3.94259,-0.267326,-3.24347,-0.253624,-0.351346,0.476326
9890,-2.43756,0,-8.59587,-3.95009,-0.259455,-3.25543,-0.254373,-0.349386,0.47834
9891,-2.43921,0,-8.59491,-3.9552,-0.251812,-3.27183,-0.255579,-0.347967,0.480284
9892,-2.44086,0,-8.59395,-3.96201,-0.247028,-3.28004,-0.256998,-0.345793,0.481228
9893,-2.44251,0,-8.59299,-3.96995,-0.242959,-3.28652,-0.258482,-0.34355,0.481928
9894,-2.44416,0,-8.59203,-3.9807,-0.239345,-3.2917,-0.259812,-0.340759,0.482289
9895,-2.44581,0,-8.59107,-3.98692,-0.237763,-3.29784,-0.260712,-0.338673,0.482375
9896,-2.44746,0,-8.59011,-3.99305,-0.240707,-3.28957,-0.260766,-0.336464,0.48183
9897,-2.4491,0,-8.58916,-3.9956,-0.246064,-3.27525,-0.259965,-0.33509,0.481248
9898,-2.45075,0,-8.5882,-3.99807,-0.252939,-3.25366,-0.258606,-0.333802,0.481687
9899,-2.45239,0,-8.58724,-3.99658,-0.257605,-3.24149,-0.257588,-0.333547,0.48258
9900,-2.45404,0,-8.58628,-3.995,-0.259833,-3.23753,-0.257013,-0.333335,0.484003
9901,-2.45568,0,-8.58533,-3.98886,-0.261736,-3.23862,-0.256426,-0.333812,0.486206
9902,-2.45733,0,-8.58437,-3.97434,-0.27013,-3.22214,-0.254905,-0.334975,0.489413
9903,-2.45897,0,-8.58341,-3.95493,-0.281286,-3.19338,-0.252537,-0.336947,0.492482
9904,-2.46061,0,-8.58246,-3.93256,-0.299177,-3.13418,-0.248568,-0.338752,0.495043
9905,-2.46225,0,-8.5815,-3.90717,-0.321155,-3.05225,-0.243194,-0.340486,0.496181
9906,-2.46389,0,-8.58054,-3.87902,-0.344355,-2.95719,-0.236923,-0.342057,0.496067
9907,-2.46553,0,-8.57959,-3.85024,-0.36378,-2.86774,-0.230566,-0.343569,0.495999
9908,-2.46717,0,-8.57863,-3.80065,-0.391174,-2.76867,-0.222981,-0.346668,0.494835
9909,-2.46881,0,-8.57768,-3.74454,-0.417657,-2.67341,-0.215044,-0.349559,0.494634
9910,-2.47045,0,-8.57672,-3.68404,-0.442048,-2.58292,-0.207349,-0.352555,0.493847
9911,-2.47209,0,-8.57577,-3.633,-0.457762,-2.50483,-0.200634,-0.354439,0.493291
9912,-2.47372,0,-8.57481,-3.58545,-0.467299,-2.44038,-0.19485,-0.356185,0.492319
9913,-2.47536,0,-8.57386,-3.54007,-0.477011,-2.36643,-0.188548,-0.357956,0.490715
9914,-2.47699,0,-8.5729,-3.50107,-0.483913,-2.29066,-0.182017,-0.359161,0.488541
9915,-2.47863,0,-8.57195,-3.46032,-0.490933,-2.21468,-0.175323,-0.360564,0.485991
9916,-2.48026,0,-8.571,-3.41121,-0.499835,-2.14167,-0.168465,-0.362834,0.482784
9917,-2.48189,0,-8.57004,-3.35804,-0.508335,-2.07622,-0.161499,-0.365004,0.480723
9918,-2.48352,0,-8.56909,-3.30204,-0.517696,-2.01,-0.154594,-0.367019,0.479057
9919,-2.48515,0,-8.56814,-3.25243,-0.52338,-1.94648,-0.148088,-0.368527,0.477244
9920,-2.48678,0,-8.56718,-3.20689,-0.525236,-1.89204,-0.142092,-0.369856,0.475282
9921,-2.48841,0,-8.56623,-3.16172,-0.525882,-1.84202,-0.13645,-0.371367,0.47322
9922,-2.49004,0,-8.56528,-3.1237,-0.521877,-1.79882,-0.131673,-0.372322,0.471253
9923,-2.49167,0,-8.56432,-3.09179,-0.512575,-1.76925,-0.12793,-0.372737,0.46998
9924,-2.4933,0,-8.56337,-3.06648,-0.499957,-1.74605,-0.124929,-0.372781,0.468793
9925,-2.49493,0,-8.56242,-3.0433,-0.488477,-1.72239,-0.12196,-0.372909,0.467503
9926,-2.49655,0,-8.56147,-3.02297,-0.477804,-1.70206,-0.118665,-0.373134,0.466107
9927,-2.49818,0,-8.56052,-3.01303,-0.464762,-1.6869,-0.115711,-0.372165,0.465646
9928,-2.4998,0,-8.55957,-3.00396,-0.452803,-1.67379,-0.112888,-0.371246,0.465332
9929,-2.50143,0,-8.55861,-2.99036,-0.444529,-1.65289,-0.110114,-0.370954,0.464254
9930,-2.50305,0,-8.55766,-2.96928,-0.439329,-1.62683,-0.107433,-0.371495,0.462953
9931,-2.50467,0,-8.55671,-2.93823,-0.436197,-1.60275,-0.10497,-0.373186,0.461252
9932,-2.50629,0,-8.55576,-2.89849,-0.438225,-1.57028,-0.101802,-0.375484,0.459063
9933,-2.50791,0,-8.55481,-2.86213,-0.440103,-1.5347,-0.0983197,-0.377319,0.456931
9934,-2.50953,0,-8.55386,-2.83287,-0.44066,-1.49721,-0.0946214,-0.378304,0.455429
9935,-2.51115,0,-8.55291,-2.81916,-0.434323,-1.46782,-0.0916267,-0.377645,0.454582
9936,-2.51277,0,-8.55196,-2.80628,-0.426857,-1.44322,-0.089029,-0.377151,0.453562
9937,-2.51439,0,-8.55101,-2.79166,-0.420242,-1.42094,-0.0866406,-0.377207,0.452113
9938,-2.51601,0,-8.55006,-2.77807,-0.415453,-1.39418,-0.0839358,-0.377104,0.450961
9939,-2.51762,0,-8.54911,-2.76027,-0.413555,-1.36689,-0.080775,-0.377513,0.449543
9940,-2.51924,0,-8.54817,-2.7425,-0.412438,-1.33854,-0.077404,-0.378047,0.448463
9941,-2.52085,0,-8.54722,-2.71583,-0.418012,-1.29877,-0.0733717,-0.378829,0.447828
9942,-2.52247,0,-8.54627,-2.67368,-0.434005,-1.23926,-0.06792,-0.380221,0.447163
9943,-2.52408,0,-8.54532,-2.62183,-0.455575,-1.16407,-0.0613851,-0.382022,0.446515
9944,-2.5257,0,-8.54437,-2.56488,-0.477663,-1.086,-0.0546743,-0.384031,0.445551
9945,-2.52731,0,-8.54342,-2.50267,-0.501374,-1.00584,-0.0474171,-0.38644,0.44391
9946,-2.52892,0,-8.54248,-2.44164,-0.52359,-0.924273,-0.0398699,-0.388578,0.442392
9947,-2.53053,0,-8.54153,-2.39438,-0.53572,-0.850933,-0.03329,-0.389524,0.44105
9948,-2.53214,0,-8.54058,-2.35415,-0.540258,-0.788405,-0.0277803,-0.390234,0.439158
9949,-2.53375,0,-8.53964,-2.31894,-0.537819,-0.740399,-0.0231714,-0.390857,0.43751
9950,-2.53536,0,-8.53869,-2.27272,-0.54023,-0.68591,-0.0180743,-0.39253,0.434918
9951,-2.53697,0,-8.53774,-2.21113,-0.551315,-0.617446,-0.0118412,-0.395636,0.431068
9952,-2.53857,0,-8.5368,-2.14151,-0.569119,-0.532184,-0.0040725,-0.398965,0.42674
9953,-2.54018,0,-8.53585,-2.05775,-0.596806,-0.423848,0.0056567,-0.402789,0.423005
9954,-2.54179,0,-8.5349,-1.96671,-0.626846,-0.308852,0.0162436,-0.406964,0.418736
9955,-2.54339,0,-8.53396,-1.87559,-0.65385,-0.196357,0.0268802,-0.410976,0.414547
9956,-2.545,0,-8.53301,-1.79184,-0.673714,-0.0931644,0.0368788,-0.414427,0.410305
9957,-2.5466,0,-8.53207,-1.72226,-0.681659,-0.0104414,0.0456528,-0.416765,0.406722
9958,-2.5482,0,-8.53112,-1.67266,-0.674962,0.0461513,0.0524721,-0.417782,0.403642
9959,-2.54981,0,-8.53018,-1.62586,-0.665293,0.0939259,0.0586282,-0.419003,0.400107
9960,-2.55141,0,-8.52923,-1.57956,-0.656237,0.138663,0.0646037,-0.420329,0.396741
9961,-2.55301,0,-8.52829,-1.54028,-0.645332,0.179646,0.070202,-0.421134,0.393939
9962,-2.55461,0,-8.52734,-1.50425,-0.633572,0.215023,0.0754878,-0.421903,0.391202
9963,-2.55621,0,-8.5264,-1.47125,-0.622319,0.24941,0.0805064,-0.422398,0.388971
9964,-2.55781,0,-8.52546,-1.42752,-0.617731,0.293011,0.0859361,-0.423739,0.386653
9965,-2.55941,0,-8.52451,-1.37033,-0.621635,0.352585,0.0919874,-0.425821,0.38435
9966,-2.561,0,-8.52357,-1.29282,-0.638086,0.437256,0.0995163,-0.428974,0.382815
9967,-2.5626,0,-8.52263,-1.21056,-0.658234,0.530793,0.107794,-0.432381,0.380716
9968,-2.5642,0,-8.52168,-1.12704,-0.680661,0.630232,0.116901,-0.43576,0.378119
9969,-2.56579,0,-8.52074,-1.0547,-0.695256,0.717187,0.125582,-0.438485,0.374985
9970,-2.56739,0,-8.5198,-0.981634,-0.710077,0.804486,0.134478,-0.441585,0.370639
9971,-2.56898,0,-8.51885,-0.926305,-0.709255,0.866844,0.141451,-0.443221,0.367803
9972,-2.57057,0,-8.51791,-0.886942,-0.691306,0.897493,0.145791,-0.443888,0.365676
9973,-2.57217,0,-8.51697,-0.857824,-0.664757,0.910039,0.148444,-0.444006,0.36396
9974,-2.57376,0,-8.51603,-0.831452,-0.63934,0.922079,0.150527,-0.444184,0.362147
9975,-2.57535,0,-8.51509,-0.804958,-0.619414,0.941106,0.152872,-0.444384,0.360656
9976,-2.57694,0,-8.51415,-0.781312,-0.603439,0.962593,0.15565,-0.444442,0.359309
9977,-2.57853,0,-8.51321,-0.755913,-0.594309,0.992245,0.159276,-0.444706,0.35776
9978,-2.58012,0,-8.51226,-0.725485,-0.590179,1.02752,0.1632,-0.445312,0.356663
9979,-2.58171,0,-8.51132,-0.6959,-0.58516,1.05846,0.166872,-0.445835,0.356102
9980,-2.58329,0,-8.51038,-0.674767,-0.573718,1.07701,0.169282,-0.445857,0.355845
9981,-2.58488,0,-8.50944,-0.668067,-0.55446,1.0816,0.170445,-0.444899,0.356039
9982,-2.58647,0,-8.5085,-0.667668,-0.534293,1.08302,0.171264,-0.443521,0.355732
9983,-2.58805,0,-8.50756,-0.667836,-0.5161,1.08335,0.171976,-0.442207,0.355777
9984,-2.58964,0,-8.50662,-0.664041,-0.501629,1.08676,0.172643,-0.441294,0.355955
9985,-2.59122,0,-8.50568,-0.663007,-0.485018,1.08468,0.17274,-0.440279,0.357093
9986,-2.59281,0,-8.50474,-0.665588,-0.464866,1.07558,0.171911,-0.439073,0.357798
9987,-2.59439,0,-8.50381,-0.659496,-0.449838,1.07328,0.171566,-0.439065,0.357242
9988,-2.59597,0,-8.50287,-0.652029,-0.437033,1.07206,0.171596,-0.439382,0.356051
9989,-2.59755,0,-8.50193,-0.636118,-0.430938,1.07909,0.172773,-0.440347,0.354432
9990,-2.59913,0,-8.50099,-0.609072,-0.43229,1.09661,0.174915,-0.44225,0.352172
9991,-2.60071,0,-8.50005,-0.569446,-0.445069,1.13582,0.178712,-0.445006,0.349104
9992,-2.60229,0,-8.49911,-0.528518,-0.459008,1.18373,0.183225,-0.447259,0.34673
9993,-2.60387,0,-8.49818,-0.488783,-0.468523,1.2259,0.187337,-0.449363,0.34438
9994,-2.60545,0,-8.49724,-0.449832,-0.474612,1.26303,0.191052,-0.451587,0.341558
9995,-2.60703,0,-8.4963,-0.426377,-0.470149,1.2805,0.193659,-0.452698,0.339301
9996,-2.6086,0,-8.49536,-0.421854,-0.452152,1.27683,0.194236,-0.452268,0.338629
9997,-2.61018,0,-8.49443,-0.419041,-0.428658,1.26146,0.193443,-0.451826,0.338561
9998,-2.61175,0,-8.49349,-0.415152,-0.404619,1.24248,0.191901,-0.451528,0.338871
9999,-2.61333,0,-8.49255,-0.400865,-0.390361,1.23918,0.191463,-0.452141,0.338993
10000,-2.6149,0,-8.49162,-0.376639,-0.387516,1.25583,0.192347,-0.453301,0.338265
10001,-2.61647,0,-8.49068,-0.342598,-0.392544,1.28463,0.194491,-0.455165,0.337073
10002,-2.61805,0,-8.48974,-0.300526,-0.400815,1.31842,0.197087,-0.457721,0.335901
10003,-2.61962,0,-8.48881,-0.261846,-0.407626,1.34902,0.199681,-0.459733,0.334759
10004,-2.62119,0,-8.48787,-0.231259,-0.409484,1.37158,0.202005,-0.461272,0.334038
10005,-2.62276,0,-8.48694,-0.218842,-0.400561,1.37499,0.202869,-0.461274,0.333981
10006,-2.62433,0,-8.486,-0.231735,-0.378589,1.35741,0.201739,-0.459131,0.335953
10007,-2.6259,0,-8.48507,-0.273776,-0.342999,1.31752,0.198211,-0.454493,0.340455
10008,-2.62747,0,-8.48413,-0.333564,-0.302555,1.26691,0.193196,-0.448522,0.346084
10009,-2.62903,0,-8.4832,-0.400798,-0.263998,1.21681,0.187542,-0.441807,0.352452
10010,-2.6306,0,-8.48226,-0.479694,-0.225496,1.16165,0.181198,-0.434257,0.359798
10011,-2.63217,0,-8.48133,-0.555853,-0.196922,1.1185,0.175578,-0.42706,0.36713
10012,-2.63373,0,-8.4804,-0.634197,-0.172371,1.07852,0.169989,-0.419956,0.374206
10013,-2.6353,0,-8.47946,-0.715102,-0.150996,1.03997,0.164179,-0.412707,0.381145
10014,-2.63686,0,-8.47853,-0.790258,-0.131831,0.989354,0.157801,-0.406091,0.388352
10015,-2.63843,0,-8.4776,-0.866896,-0.110796,0.922331,0.150089,-0.399263,0.396834
10016,-2.63999,0,-8.47666,-0.952456,-0.081419,0.817788,0.140004,-0.391554,0.406914
10017,-2.64155,0,-8.47573,-1.05236,-0.0423432,0.680539,0.127344,-0.382838,0.418726
10018,-2.64311,0,-8.4748,-1.17554,0.00754898,0.510265,0.111824,-0.372712,0.431687
10019,-2.64467,0,-8.47387,-1.32084,0.0660848,0.312256,0.0937463,-0.36174,0.444329
10020,-2.64623,0,-8.47293,-1.4906,0.130835,0.0957055,0.0735145,-0.349885,0.455969
10021,-2.64779,0,-8.472,-1.67834,0.199847,-0.146585,0.0514378,-0.337131,0.466498
10022,-2.64935,0,-8.47107,-1.85741,0.257663,-0.389028,0.0293533,-0.325376,0.4767
10023,-2.65091,0,-8.47014,-2.01905,0.302591,-0.631383,0.00774514,-0.315462,0.486357
10024,-2.65247,0,-8.46921,-2.16981,0.33906,-0.877639,-0.0141311,-0.30602,0.495899
10025,-2.65402,0,-8.46828,-2.31015,0.368844,-1.13244,-0.0364979,-0.29666,0.504659
10026,-2.65558,0,-8.46734,-2.4407,0.39369,-1.39652,-0.0593373,-0.287572,0.512561
10027,-2.65714,0,-8.46641,-2.56102,0.410314,-1.65792,-0.08235,-0.278633,0.518138
10028,-2.65869,0,-8.46548,-2.67413,0.415483,-1.89516,-0.105379,-0.269774,0.518808
10029,-2.66024,0,-8.46455,-2.77695,0.410713,-2.1169,-0.127766,-0.260954,0.514785
10030,-2.6618,0,-8.46362,-2.8692,0.395411,-2.31945,-0.148801,-0.252213,0.50727
10031,-2.66335,0,-8.46269,-2.94471,0.367339,-2.49962,-0.16807,-0.243879,0.496487
10032,-2.6649,0,-8.46176,-3.00851,0.329752,-2.66118,-0.18579,-0.235361,0.482906
10033,-2.66645,0,-8.46083,-3.06408,0.293156,-2.82519,-0.202353,-0.227371,0.469349
10034,-2.668,0,-8.4599,-3.10676,0.26019,-3.00116,-0.217307,-0.220063,0.457103
10035,-2.66955,0,-8.45897,-3.13926,0.224224,-3.16973,-0.231016,-0.212937,0.444334
10036,-2.6711,0,-8.45805,-3.16658,0.182648,-3.3151,-0.244337,-0.206882,0.429656
10037,-2.67265,0,-8.45712,-3.18752,0.140462,-3.44578,-0.256938,-0.201944,0.412442
10038,-2.6742,0,-8.45619,-3.19707,0.0900623,-3.55304,-0.269014,-0.197718,0.391451
10039,-2.67575,0,-8.45526,-3.19741,0.0398491,-3.65616,-0.279973,-0.193053,0.368683
10040,-2.67729,0,-8.45433,-3.19745,-0.00440378,-3.75556,-0.288882,-0.190157,0.349901
10041,-2.67884,0,-8.4534,-3.19551,-0.0460995,-3.84744,-0.295836,-0.187921,0.334431
10042,-2.68038,0,-8.45248,-3.19243,-0.0877058,-3.92601,-0.301405,-0.187018,0.322329
10043,-2.68193,0,-8.45155,-3.18825,-0.126718,-3.99866,-0.306137,-0.186164,0.311846
10044,-2.68347,0,-8.45062,-3.18569,-0.159087,-4.07042,-0.310155,-0.185701,0.303567
10045,-2.68502,0,-8.44969,-3.18263,-0.188541,-4.13862,-0.313653,-0.185838,0.297034
10046,-2.68656,0,-8.44877,-3.17366,-0.216383,-4.2057,-0.31635,-0.185013,0.289696
10047,-2.6881,0,-8.44784,-3.15872,-0.245613,-4.2672,-0.318282,-0.183561,0.281995
10048,-2.68964,0,-8.44691,-3.14227,-0.275708,-4.31986,-0.320037,-0.182466,0.274393
10049,-2.69118,0,-8.44599,-3.12842,-0.305011,-4.36098,-0.321978,-0.182603,0.266534
10050,-2.69272,0,-8.44506,-3.1177,-0.334069,-4.39262,-0.324172,-0.182956,0.258086
10051,-2.69426,0,-8.44414,-3.10756,-0.360014,-4.42033,-0.326462,-0.183778,0.249077
10052,-2.6958,0,-8.44321,-3.0946,-0.381312,-4.45249,-0.328272,-0.184232,0.24022
10053,-2.69734,0,-8.44228,-3.07935,-0.398602,-4.48867,-0.329522,-0.184812,0.233863
10054,-2.69888,0,-8.44136,-3.05746,-0.411779,-4.52481,-0.330177,-0.186929,0.229403
10055,-2.70041,0,-8.44043,-3.03254,-0.423759,-4.56413,-0.330231,-0.188169,0.225697
10056,-2.70195,0,-8.43951,-3.00484,-0.434416,-4.60085,-0.329543,-0.189206,0.222645
10057,-2.70348,0,-8.43858,-2.97612,-0.448443,-4.62875,-0.328723,-0.19046,0.219441
10058,-2.70502,0,-8.43766,-2.95046,-0.464905,-4.64883,-0.328044,-0.190794,0.215033
10059,-2.70655,0,-8.43674,-2.92864,-0.48219,-4.6621,-0.32828,-0.191055,0.209275
10060,-2.70809,0,-8.43581,-2.90329,-0.495715,-4.67765,-0.328859,-0.191661,0.202923
10061,-2.70962,0,-8.43489,-2.8732,-0.507145,-4.69688,-0.329718,-0.191268,0.194189
10062,-2.71115,0,-8.43396,-2.83832,-0.516983,-4.71312,-0.330457,-0.19189,0.184312
10063,-2.71268,0,-8.43304,-2.79386,-0.532469,-4.7251,-0.331332,-0.192589,0.171706
10064,-2.71421,0,-8.43212,-2.74109,-0.550334,-4.7375,-0.332474,-0.192777,0.156022
10065,-2.71574,0,-8.43119,-2.68536,-0.563695,-4.7525,-0.333082,-0.19367,0.141714
10066,-2.71727,0,-8.43027,-2.62696,-0.57583,-4.76761,-0.333356,-0.194577,0.127821
10067,-2.7188,0,-8.42935,-2.5622,-0.586865,-4.78606,-0.333254,-0.195437,0.115641
10068,-2.72033,0,-8.42843,-2.48899,-0.591059,-4.81229,-0.332233,-0.194584,0.104597
10069,-2.72186,0,-8.4275,-2.41079,-0.588831,-4.83968,-0.330191,-0.193464,0.096327
10070,-2.72338,0,-8.42658,-2.32645,-0.580533,-4.86423,-0.326965,-0.192959,0.0907415
10071,-2.72491,0,-8.42566,-2.23689,-0.575835,-4.8848,-0.324086,-0.191767,0.0842819
10072,-2.72643,0,-8.42474,-2.13921,-0.574375,-4.90401,-0.321644,-0.190121,0.0754651
10073,-2.72796,0,-8.42382,-2.03488,-0.579205,-4.92082,-0.319963,-0.188924,0.0639662
10074,-2.72948,0,-8.4229,-1.92001,-0.592614,-4.93899,-0.319496,-0.18747,0.0483356
10075,-2.73101,0,-8.42197,-1.79427,-0.611433,-4.96259,-0.320092,-0.186627,0.0297519
10076,-2.73253,0,-8.42105,-1.65975,-0.623907,-5.00065,-0.319937,-0.18347,0.0107362
10077,-2.73405,0,-8.42013,-1.51761,-0.629906,-5.0397,-0.318032,-0.179024,-0.00524178
10078,-2.73557,0,-8.41921,-1.37465,-0.633496,-5.07248,-0.314565,-0.174273,-0.0163067
10079,-2.73709,0,-8.41829,-1.22928,-0.633969,-5.10467,-0.309575,-0.168853,-0.0241245
10080,-2.73861,0,-8.41737,-1.08468,-0.632415,-5.14066,-0.304007,-0.163265,-0.0300844
10081,-2.74013,0,-8.41645,-0.941135,-0.630301,-5.17849,-0.298251,-0.157514,-0.0353301
10082,-2.74165,0,-8.41553,-0.80381,-0.627486,-5.21457,-0.293023,-0.152529,-0.0397555
10083,-2.74317,0,-8.41461,-0.669545,-0.626764,-5.24606,-0.288965,-0.148444,-0.0451055
10084,-2.74469,0,-8.41369,-0.531781,-0.631643,-5.27862,-0.287654,-0.145387,-0.054311
10085,-2.7462,0,-8.41277,-0.388782,-0.637948,-5.31173,-0.288275,-0.142859,-0.066183
10086,-2.74772,0,-8.41186,-0.247937,-0.636538,-5.34137,-0.288027,-0.139099,-0.0763247
10087,-2.74924,0,-8.41094,-0.109581,-0.631216,-5.36013,-0.286898,-0.135162,-0.0840269
10088,-2.75075,0,-8.41002,0.0248784,-0.625471,-5.37146,-0.285403,-0.132451,-0.090014
10089,-2.75227,0,-8.4091,0.154144,-0.621153,-5.38105,-0.284014,-0.130958,-0.0954285
10090,-2.75378,0,-8.40818,0.273737,-0.618542,-5.39399,-0.282765,-0.130653,-0.0999731
10091,-2.75529,0,-8.40726,0.383799,-0.614389,-5.4088,-0.281372,-0.131564,-0.103834
10092,-2.7568,0,-8.40635,0.480742,-0.608821,-5.42429,-0.279846,-0.132768,-0.106766
10093,-2.75832,0,-8.40543,0.568587,-0.603295,-5.43696,-0.279121,-0.133283,-0.110816
10094,-2.75983,0,-8.40451,0.650731,-0.59402,-5.44894,-0.279504,-0.133649,-0.117074
10095,-2.76134,0,-8.4036,0.727602,-0.580262,-5.45955,-0.280381,-0.133644,-0.12432
10096,-2.76285,0,-8.40268,0.80379,-0.565375,-5.46341,-0.281695,-0.133804,-0.131967
10097,-2.76436,0,-8.40176,0.879417,-0.550328,-5.46244,-0.282974,-0.134769,-0.139062
10098,-2.76586,0,-8.40085,0.951378,-0.53322,-5.45822,-0.283481,-0.136267,-0.144834
10099,-2.76737,0,-8.39993,1.0166,-0.51619,-5.453,-0.283586,-0.137891,-0.149553
10100,-2.76888,0,-8.39901,1.07436,-0.496469,-5.45189,-0.283678,-0.139278,-0.154284
10101,-2.77039,0,-8.3981,1.12256,-0.47622,-5.45057,-0.283732,-0.140898,-0.158173
10102,-2.77189,0,-8.39718,1.16736,-0.455816,-5.44653,-0.284277,-0.143083,-0.162851
10103,-2.7734,0,-8.39627,1.20696,-0.436121,-5.44767,-0.286042,-0.144435,-0.169195
10104,-2.7749,0,-8.39535,1.24264,-0.411524,-5.44416,-0.28811,-0.145606,-0.175696
10105,-2.77641,0,-8.39444,1.27802,-0.385973,-5.43194,-0.2902,-0.146421,-0.182091
10106,-2.77791,0,-8.39352,1.31489,-0.36039,-5.41564,-0.292554,-0.147494,-0.188416
10107,-2.77941,0,-8.39261,1.35096,-0.331901,-5.39633,-0.294581,-0.14857,-0.194517
10108,-2.78091,0,-8.39169,1.38456,-0.300105,-5.37987,-0.296183,-0.149647,-0.200135
10109,-2.78242,0,-8.39078,1.41522,-0.264443,-5.37189,-0.297793,-0.150624,-0.206222
10110,-2.78392,0,-8.38986,1.44144,-0.226573,-5.37018,-0.299701,-0.151195,-0.212772
10111,-2.78542,0,-8.38895,1.46492,-0.185587,-5.37202,-0.302238,-0.152264,-0.220051
10112,-2.78692,0,-8.38804,1.48723,-0.148448,-5.36756,-0.304548,-0.153859,-0.226212
10113,-2.78841,0,-8.38712,1.50894,-0.116306,-5.34835,-0.305767,-0.15647,-0.229546
10114,-2.78991,0,-8.38621,1.53651,-0.087065,-5.32082,-0.306467,-0.159795,-0.231995
10115,-2.79141,0,-8.3853,1.56247,-0.057536,-5.29669,-0.306472,-0.161768,-0.233928
10116,-2.79291,0,-8.38438,1.58492,-0.0269898,-5.28427,-0.30615,-0.162234,-0.235653
10117,-2.7944,0,-8.38347,1.60493,0.00390117,-5.27873,-0.305019,-0.16174,-0.237076
10118,-2.7959,0,-8.38256,1.62324,0.0321755,-5.28092,-0.303869,-0.160973,-0.238722
10119,-2.79739,0,-8.38165,1.63874,0.0585315,-5.28714,-0.302942,-0.160053,-0.240588
10120,-2.79889,0,-8.38073,1.65282,0.082052,-5.29015,-0.302307,-0.159761,-0.242533
10121,-2.80038,0,-8.37982,1.66765,0.098333,-5.28403,-0.301842,-0.160715,-0.243563
10122,-2.80188,0,-8.37891,1.68425,0.110042,-5.26529,-0.300861,-0.163227,-0.242873
10123,-2.80337,0,-8.378,1.70277,0.118931,-5.24436,-0.299623,-0.166046,-0.241173
10124,-2.80486,0,-8.37709,1.72149,0.127577,-5.22267,-0.297876,-0.168997,-0.238871
10125,-2.80635,0,-8.37618,1.73855,0.136067,-5.20678,-0.295751,-0.17099,-0.236317
10126,-2.80784,0,-8.37527,1.75423,0.145366,-5.1954,-0.293322,-0.17189,-0.234116
10127,-2.80933,0,-8.37436,1.76853,0.154298,-5.1885,-0.291236,-0.172107,-0.232438
10128,-2.81082,0,-8.37344,1.78127,0.162857,-5.18274,-0.289227,-0.172331,-0.230961
10129,-2.81231,0,-8.37253,1.79226,0.16972,-5.1793,-0.287652,-0.172778,-0.229539
10130,-2.8138,0,-8.37162,1.80208,0.173651,-5.17541,-0.286353,-0.173606,-0.227966
10131,-2.81528,0,-8.37071,1.81269,0.176558,-5.16913,-0.285095,-0.175243,-0.226418
10132,-2.81677,0,-8.3698,1.82462,0.176781,-5.15724,-0.283724,-0.177169,-0.224319
10133,-2.81826,0,-8.3689,1.83715,0.176198,-5.14704,-0.282487,-0.178084,-0.222329
10134,-2.81974,0,-8.36799,1.85285,0.174709,-5.13406,-0.281803,-0.178668,-0.221202
10135,-2.82123,0,-8.36708,1.8678,0.174632,-5.12672,-0.281231,-0.179007,-0.220446
10136,-2.82271,0,-8.36617,1.88163,0.174584,-5.12676,-0.280913,-0.178192,-0.220805
10137,-2.8242,0,-8.36526,1.89471,0.1739,-5.12551,-0.280781,-0.177525,-0.221147
10138,-2.82568,0,-8.36435,1.91041,0.173244,-5.12374,-0.281642,-0.177019,-0.222964
10139,-2.82716,0,-8.36344,1.92673,0.172109,-5.12185,-0.282891,-0.176906,-0.225074
10140,-2.82864,0,-8.36253,1.94519,0.172521,-5.11924,-0.284486,-0.177107,-0.227774
10141,-2.83012,0,-8.36163,1.96591,0.171724,-5.11281,-0.286311,-0.177769,-0.230752
10142,-2.8316,0,-8.36072,1.99144,0.17118,-5.10403,-0.288458,-0.179297,-0.234145
10143,-2.83308,0,-8.35981,2.02015,0.17239,-5.09419,-0.29053,-0.181423,-0.237589
10144,-2.83456,0,-8.3589,2.05082,0.175669,-5.08724,-0.292881,-0.183889,-0.241598
10145,-2.83604,0,-8.358,2.08411,0.181533,-5.08233,-0.295204,-0.187162,-0.246344
10146,-2.83752,0,-8.35709,2.11881,0.188588,-5.08609,-0.297604,-0.190333,-0.251545
10147,-2.839,0,-8.35618,2.15861,0.196686,-5.09301,-0.300427,-0.194227,-0.257873
10148,-2.84047,0,-8.35528,2.20358,0.204535,-5.10247,-0.303708,-0.198416,-0.265285
10149,-2.84195,0,-8.35437,2.25079,0.210586,-5.11356,-0.307095,-0.202786,-0.272806
10150,-2.84342,0,-8.35346,2.29695,0.219171,-5.12895,-0.310263,-0.206664,-0.280167
10151,-2.8449,0,-8.35256,2.34552,0.227289,-5.14282,-0.31369,-0.210578,-0.288143
10152,-2.84637,0,-8.35165,2.39842,0.234144,-5.15811,-0.317883,-0.214681,-0.296826
10153,-2.84785,0,-8.35075,2.45383,0.239691,-5.16687,-0.321942,-0.218877,-0.304975
10154,-2.84932,0,-8.34984,2.51152,0.24164,-5.16408,-0.325118,-0.223188,-0.311539
10155,-2.85079,0,-8.34894,2.56962,0.241588,-5.15453,-0.327821,-0.227785,-0.316863
10156,-2.85226,0,-8.34803,2.62655,0.244404,-5.1456,-0.329688,-0.232913,-0.321231
10157,-2.85374,0,-8.34713,2.68379,0.249541,-5.14488,-0.331407,-0.238513,-0.325797
10158,-2.85521,0,-8.34622,2.74485,0.255269,-5.15452,-0.33371,-0.244535,-0.331796
10159,-2.85668,0,-8.34532,2.80756,0.260183,-5.16592,-0.336456,-0.250256,-0.338323
10160,-2.85814,0,-8.34441,2.87098,0.263656,-5.1728,-0.339107,-0.255561,-0.344466
10161,-2.85961,0,-8.34351,2.93769,0.265352,-5.17754,-0.342329,-0.260798,-0.351199
10162,-2.86108,0,-8.34261,3.00762,0.265067,-5.17801,-0.345725,-0.266439,-0.357908
10163,-2.86255,0,-8.3417,3.07653,0.268636,-5.18008,-0.348945,-0.271995,-0.364391
10164,-2.86402,0,-8.3408,3.14253,0.276197,-5.18625,-0.351801,-0.27778,-0.370547
10165,-2.86548,0,-8.3399,3.21116,0.287891,-5.20666,-0.355456,-0.284124,-0.378509
10166,-2.86695,0,-8.33899,3.27832,0.294807,-5.22789,-0.358816,-0.289947,-0.385646
10167,-2.86841,0,-8.33809,3.34467,0.296673,-5.23831,-0.361254,-0.295731,-0.391035
10168,-2.86988,0,-8.33719,3.4135,0.289471,-5.23535,-0.36334,-0.301161,-0.395329
10169,-2.87134,0,-8.33628,3.48068,0.284425,-5.23049,-0.365167,-0.306872,-0.398944
10170,-2.8728,0,-8.33538,3.54188,0.284436,-5.2274,-0.366221,-0.312207,-0.401795
10171,-2.87427,0,-8.33448,3.59749,0.292836,-5.23742,-0.367206,-0.317241,-0.405053
10172,-2.87573,0,-8.33358,3.64931,0.300161,-5.25232,-0.367861,-0.321825,-0.407752
10173,-2.87719,0,-8.33268,3.70503,0.299195,-5.25846,-0.36861,-0.32648,-0.410502
10174,-2.87865,0,-8.33178,3.76122,0.294562,-5.26141,-0.369708,-0.331281,-0.413383
10175,-2.88011,0,-8.33087,3.81595,0.288439,-5.26311,-0.370757,-0.335985,-0.416005
10176,-2.88157,0,-8.32997,3.86829,0.283339,-5.26729,-0.371778,-0.340031,-0.418437
10177,-2.88303,0,-8.32907,3.91969,0.275735,-5.26577,-0.372861,-0.343664,-0.420714
10178,-2.88448,0,-8.32817,3.96575,0.272773,-5.26632,-0.373558,-0.347514,-0.422422
10179,-2.88594,0,-8.32727,4.00165,0.27781,-5.27595,-0.373397,-0.350774,-0.423143
10180,-2.8874,0,-8.32637,4.03126,0.285231,-5.29652,-0.373578,-0.353732,-0.424631
10181,-2.88886,0,-8.32547,4.05818,0.294481,-5.31953,-0.373843,-0.356524,-0.426625
10182,-2.89031,0,-8.32457,4.08546,0.296299,-5.33328,-0.373865,-0.358029,-0.42796
10183,-2.89177,0,-8.32367,4.11963,0.288997,-5.3343,-0.37484,-0.35933,-0.430145
10184,-2.89322,0,-8.32277,4.16076,0.279996,-5.33054,-0.376948,-0.36106,-0.433832
10185,-2.89467,0,-8.32187,4.20052,0.274037,-5.33042,-0.379484,-0.362705,-0.438016
10186,-2.89613,0,-8.32097,4.23757,0.274595,-5.3354,-0.381982,-0.364014,-0.442348
10187,-2.89758,0,-8.32007,4.27127,0.282591,-5.34572,-0.383954,-0.363682,-0.446665
10188,-2.89903,0,-8.31918,4.29947,0.29461,-5.3653,-0.386164,-0.364498,-0.450773
10189,-2.90048,0,-8.31828,4.32355,0.311628,-5.38972,-0.388136,-0.36542,-0.454996
10190,-2.90193,0,-8.31738,4.34189,0.328495,-5.41919,-0.389901,-0.36644,-0.458535
10191,-2.90338,0,-8.31648,4.35648,0.350141,-5.45325,-0.391426,-0.366664,-0.462104
10192,-2.90483,0,-8.31558,4.37547,0.364062,-5.47855,-0.393333,-0.366743,-0.466248
10193,-2.90628,0,-8.31468,4.39763,0.380051,-5.50584,-0.396061,-0.366796,-0.47148
10194,-2.90773,0,-8.31379,4.4272,0.38792,-5.52362,-0.399351,-0.366605,-0.477243
10195,-2.90918,0,-8.31289,4.4604,0.396443,-5.53981,-0.402933,-0.365853,-0.48316
10196,-2.91063,0,-8.31199,4.49245,0.408078,-5.55975,-0.406557,-0.364217,-0.48909
10197,-2.91207,0,-8.3111,4.52112,0.424989,-5.59161,-0.410385,-0.36338,-0.495027
10198,-2.91352,0,-8.3102,4.54585,0.444962,-5.62857,-0.413966,-0.363573,-0.50049
10199,-2.91496,0,-8.3093,4.56725,0.469248,-5.66731,-0.416745,-0.364288,-0.505252
10200,-2.91641,0,-8.30841,4.58338,0.496709,-5.71495,-0.419309,-0.364362,-0.509631
10201,-2.91785,0,-8.30751,4.59665,0.524374,-5.76845,-0.4221,-0.365083,-0.514141
10202,-2.9193,0,-8.30661,4.6124,0.544622,-5.81271,-0.424834,-0.366188,-0.518407
10203,-2.92074,0,-8.30572,4.63457,0.55037,-5.83413,-0.427119,-0.367477,-0.521844
10204,-2.92218,0,-8.30482,4.65914,0.545613,-5.83702,-0.428944,-0.368757,-0.524116
10205,-2.92362,0,-8.30393,4.6827,0.540439,-5.83467,-0.430231,-0.370392,-0.525662
10206,-2.92506,0,-8.30303,4.70022,0.537434,-5.82921,-0.43024,-0.371508,-0.525655
10207,-2.9265,0,-8.30214,4.71367,0.534095,-5.8174,-0.429152,-0.371819,-0.524336
10208,-2.92794,0,-8.30124,4.72421,0.528747,-5.79766,-0.42726,-0.370677,-0.521948
10209,-2.92938,0,-8.30035,4.73679,0.520164,-5.77421,-0.425759,-0.369597,-0.519994
10210,-2.93082,0,-8.29945,4.75072,0.509922,-5.74769,-0.424444,-0.368504,-0.518266
10211,-2.93226,0,-8.29856,4.76185,0.502071,-5.72097,-0.42274,-0.36747,-0.516023
10212,-2.9337,0,-8.29766,4.76704,0.494262,-5.69387,-0.420152,-0.366812,-0.512534
10213,-2.93513,0,-8.29677,4.76764,0.489597,-5.66614,-0.416823,-0.366754,-0.508337
10214,-2.93657,0,-8.29588,4.76563,0.480149,-5.63384,-0.413032,-0.36687,-0.503262
10215,-2.93801,0,-8.29498,4.76865,0.461102,-5.5845,-0.408872,-0.364049,-0.497809
10216,-2.93944,0,-8.29409,4.78222,0.438369,-5.53275,-0.406358,-0.360644,-0.494607
10217,-2.94088,0,-8.2932,4.79714,0.42584,-5.48884,-0.404615,-0.355575,-0.492896
10218,-2.94231,0,-8.2923,4.81021,0.420908,-5.45551,-0.403306,-0.348871,-0.491904
10219,-2.94374,0,-8.29141,4.82335,0.418812,-5.42233,-0.402236,-0.341201,-0.491136
10220,-2.94518,0,-8.29052,4.83878,0.418002,-5.38924,-0.401054,-0.331661,-0.490656
10221,-2.94661,0,-8.28963,4.85493,0.414837,-5.35541,-0.400002,-0.322268,-0.490004
10222,-2.94804,0,-8.28873,4.87075,0.416529,-5.32806,-0.399097,-0.313997,-0.489731
10223,-2.94947,0,-8.28784,4.88041,0.424009,-5.31438,-0.398234,-0.307574,-0.48908
10224,-2.9509,0,-8.28695,4.88666,0.437875,-5.30706,-0.396914,-0.302738,-0.488332
10225,-2.95233,0,-8.28606,4.89178,0.453514,-5.31159,-0.396319,-0.297521,-0.488443
10226,-2.95376,0,-8.28517,4.89997,0.470541,-5.32296,-0.396913,-0.29322,-0.490189
10227,-2.95519,0,-8.28428,4.91285,0.480858,-5.33036,-0.398237,-0.290935,-0.492245
10228,-2.95661,0,-8.28339,4.93035,0.483684,-5.33071,-0.399852,-0.287537,-0.494769
10229,-2.95804,0,-8.28249,4.95003,0.485752,-5.32892,-0.401779,-0.285443,-0.497363
10230,-2.95947,0,-8.2816,4.96832,0.491795,-5.33474,-0.403945,-0.28314,-0.500127
10231,-2.9609,0,-8.28071,4.9848,0.502662,-5.34483,-0.405901,-0.281633,-0.50293
10232,-2.96232,0,-8.27982,4.99656,0.515596,-5.36215,-0.407693,-0.28086,-0.50508
10233,-2.96375,0,-8.27893,5.00767,0.530325,-5.38114,-0.40939,-0.280206,-0.507521
10234,-2.96517,0,-8.27804,5.02014,0.546764,-5.40743,-0.411787,-0.280459,-0.510683
10235,-2.96659,0,-8.27715,5.03224,0.558485,-5.43167,-0.41435,-0.281699,-0.513602
10236,-2.96802,0,-8.27626,5.04519,0.569325,-5.45507,-0.416706,-0.284592,-0.516376
10237,-2.96944,0,-8.27537,5.05492,0.579086,-5.47287,-0.418161,-0.287498,-0.518143
10238,-2.97086,0,-8.27449,5.06623,0.582745,-5.48072,-0.419202,-0.289935,-0.519349
10239,-2.97228,0,-8.2736,5.07536,0.585467,-5.48469,-0.419546,-0.290634,-0.519611
10240,-2.9737,0,-8.27271,5.08478,0.586353,-5.48115,-0.419287,-0.289648,-0.519411
10241,-2.97512,0,-8.27182,5.09363,0.583846,-5.47085,-0.418753,-0.287566,-0.51875
