time,ax,ay,az
2637,-0.0175781,-0.993652,0.0722656
6583,-0.0126953,-0.993652,0.0722656
10529,-0.013916,-0.984863,0.0683594
14463,-0.013916,-0.990723,0.0715332
18404,-0.0187988,-0.990723,0.0715332
22335,-0.00805664,-0.987061,0.0686035
26310,-0.00805664,-0.991211,0.0754395
30227,-0.013916,-0.991211,0.0754395
34149,-0.0141602,-0.99292,0.0666504
38103,-0.0141602,-0.990967,0.0686035
42054,-0.0131836,-0.990967,0.0686035
46022,-0.0119629,-0.986328,0.0703125
49964,-0.0119629,-0.986328,0.0708008
53878,-0.0192871,-0.988525,0.0708008
57841,-0.017334,-0.991699,0.0637207
61794,-0.017334,-0.991699,0.0649414
65721,-0.0161133,-0.98999,0.0649414
69664,-0.0144043,-0.987793,0.0725098
73602,-0.0144043,-0.987793,0.0656738
77632,-0.0180664,-1.00635,0.0656738
81534,-0.0141602,-0.989502,0.0678711
85510,-0.0141602,-0.989502,0.0683594
89417,-0.0126953,-1.00537,0.0683594
93360,-0.0134277,-0.985107,0.0690918
97288,-0.0134277,-0.985107,0.0737305
101235,-0.0131836,-0.98999,0.0737305
105173,-0.0185547,-1.00806,0.0622559
109089,-0.0185547,-1.00806,0.00488281
113016,-0.0124512,-0.960205,0.0673828
116978,-0.0317383,-1.05225,0.0717773
120883,-0.0317383,-1.05225,0.0717773
124847,-0.0168457,-0.967529,0.0720215
128768,-0.0168457,-1.06885,0.0666504
132702,-0.0231934,-1.06885,0.0666504
136641,-0.00537109,-0.965088,0.0727539
140602,-0.00537109,-1.02197,0.074707
144477,-0.00048828,-1.02197,0.074707
148406,-0.0241699,-1.05005,0.0527344
152380,-0.0241699,-0.974121,0.0847168
156296,-0.0012207,-0.974121,0.0847168
160249,-0.0246582,-1.09424,0.0559082
164126,-0.0246582,-1.08521,0.0654297
168061,-0.00439453,-0.897705,0.0654297
172004,-0.0131836,-1.09985,0.0751953
175933,-0.0131836,-1.0752,0.0588379
179882,-0.0361328,-0.950195,0.0588379
183814,0.00927734,-0.990723,0.0944824
187777,0.00927734,-1,0.050293
191709,-0.0319824,-1.0625,0.050293
195640,-0.0197754,-0.938477,0.0610352
199594,-0.0197754,-0.938477,0.0834961
203529,-0.0239258,-1.16357,0.0834961
207471,-0.0366211,-0.991455,0.0571289
211403,-0.0366211,-0.991455,0.0722656
215317,0.00292969,-1.03784,0.0722656
219258,-0.0100098,-0.980225,0.050293
223179,-0.0100098,-0.980225,0.020752
227149,0.017334,-0.91748,0.083252
231036,0.0424805,-1.02979,0.0727539
234964,-0.0200195,-1.02979,0.122314
238903,-0.0197754,-0.846436,0.0598144
242829,-0.00195313,-1.15063,0.0517578
246760,-0.0644531,-1.15063,0.0517578
250684,-0.0334473,-0.836914,0.0678711
254638,-0.0361328,-1.04663,0.0961914
258550,-0.0361328,-1.04663,0.0961914
262463,-0.0463867,-1.0083,0.0510254
266432,-0.0463867,-0.929199,0.0874023
270346,-0.0158691,-0.929199,0.0874023
274282,-0.0444336,-1.20801,0.0512695
278208,-0.0444336,-0.931641,0.0805664
282141,0.0202637,-0.931641,0.0805664
286085,-0.034668,-1.22412,0.0371094
290007,-0.034668,-1.22632,0.0725098
293948,0.00097656,-1.10132,0.0725098
297946,0.0297852,-1.03198,0.101807
301844,0.0297852,-1.01343,0.032959
305826,-0.0476074,-1.20093,0.032959
309734,0.00878906,-0.912842,0.0864258
313666,0.00878906,-0.898682,0.0629883
317606,-0.019043,-1.14868,0.0629883
321552,-0.0437012,-1.01147,0.0505371
325459,-0.0437012,-1.01147,0.098877
329395,-0.00366211,-0.95459,0.098877
333324,-0.0339356,-1.09302,0.0539551
337253,-0.0339356,-1.09302,0.0737305
341204,-0.0114746,-0.893799,0.0737305
345154,-0.0505371,-1.11572,0.0512695
349052,-0.0505371,-1.11572,0.0927734
352989,-0.0202637,-0.995117,0.0927734
356913,-0.0227051,-1.01416,0.0756836
360851,-0.0227051,-1.01416,0.095459
364818,-0.0622559,-1.14575,0.032959
368743,-0.0166016,-0.992432,0.0871582
372664,-0.0166016,-0.992432,0.0710449
376607,-0.0180664,-1.04028,0.0710449
380557,-0.0285645,-1.03906,0.0683594
384444,-0.0285645,-1.03906,0.0683594
388385,0.0117188,-0.869629,0.0751953
392314,0.0334473,-1.0498,0.0556641
396252,-0.0290527,-1.0498,0.0556641
400194,-0.0266113,-0.866943,0.081543
404117,-0.0266113,-1.06128,0.0632324
408143,-0.0861816,-1.06128,0.0632324
412057,-0.0844727,-1.07422,0.0881348
415988,-0.0844727,-1.06567,0.0583496
419933,-0.0791016,-1.06567,0.0583496
423858,-0.0742188,-1.21313,0.0627441
427821,-0.0742188,-1.19434,0.0751953
431752,-0.0141602,-0.944336,0.0751953
435677,-0.00561523,-1.19287,0.0646973
439578,-0.00561523,-1.198,0.0678711
443506,0.0012207,-0.947998,0.0678711
447474,-0.017334,-1.06299,0.0693359
451399,-0.017334,-1.08301,0.0529785
455313,-0.078125,-1.14551,0.0529785
459262,-0.0266113,-0.940186,0.097168
463187,-0.0266113,-0.940186,0.0307617
467111,-0.0637207,-1.12573,0.0307617
471061,-0.046875,-0.876221,0.0686035
474969,-0.046875,-0.876221,0.0754395
478902,-0.0478516,-1.05176,0.0754395
482841,-0.0522461,-1.10083,0.0664062
486742,-0.0522461,-1.10083,0.0695801
490701,-0.050293,-0.980469,0.0695801
494632,-0.00415039,-1.08813,0.0822754
498541,-0.00415039,-1.08813,0.0664062
502492,-0.0378418,-1.01538,0.0664062
506397,-0.0322266,-1.04248,0.0734863
510318,-0.0322266,-1.04248,0.0749512
514254,-0.0437012,-1.00366,0.0749512
518248,-0.00732422,-0.938721,0.0563965
522237,-0.0698242,-0.938721,0.0563965
526119,-0.0544434,-1.05029,0.0522461
530044,-0.0544434,-1.03271,0.0859375
533974,-0.0786133,-1.03271,0.0859375
537942,-0.0727539,-1.07666,0.0683594
541870,-0.0727539,-1.18677,0.0397949
545807,-0.108643,-1.18677,0.0397949
549759,-0.0102539,-0.994629,0.0961914
553717,-0.0102539,-1.18579,0.0256348
557645,-0.0532227,-1.18579,0.0256348
561621,-0.0266113,-0.966064,0.0932617
565537,-0.0266113,-0.938477,0.083252
569428,-0.0283203,-1.12598,0.083252
573372,-0.102539,-1.10718,0.0483398
577285,-0.102539,-1.12329,0.0825195
581221,-0.0617676,-0.998291,0.0825195
585233,-0.103271,-1.15967,0.0297852
589226,-0.103271,-1.18628,0.088623
593171,-0.0793457,-0.873779,0.088623
597117,-0.0671387,-1.02759,0.102539
601044,-0.0671387,-1.02051,0.0539551
604993,-0.10498,-1.02051,0.0539551
608911,-0.0710449,-0.813721,0.0754395
612830,-0.0710449,-0.813721,0.0625
616736,-0.0703125,-1.07812,0.0625
620688,-0.0742188,-0.839844,0.0661621
624633,-0.0742188,-0.839844,0.0668945
628605,-0.107422,-1.11499,0.0668945
632511,-0.129395,-1.06763,0.059082
636445,-0.129395,-1.06763,0.012207
640389,-0.105957,-0.970459,0.074707
644325,-0.0861816,-1.17969,0.0612793
648284,-0.0861816,-1.17969,0.0170898
652227,-0.0666504,-0.874512,0.0795898
656160,-0.0742188,-1.11865,0.0668945
660098,-0.0742188,-1.11865,0.076416
664016,-0.103027,-1.11328,0.076416
667951,-0.107422,-0.958008,0.109375
671908,-0.0449219,-0.958008,0.109375
675806,-0.0935059,-1.0437,0.0383301
679753,-0.0935059,-0.894043,0.0612793
683687,-0.115723,-0.894043,0.0612793
687648,-0.0888672,-1.07422,0.095459
691633,-0.0888672,-1.17676,0.0473633
695610,-0.172607,-1.17676,0.0473633
699541,-0.143555,-1.06177,0.0517578
703517,-0.143555,-1.13721,0.0646973
707436,-0.0791016,-1.13721,0.0646973
711357,-0.0759277,-0.994385,0.0671387
715332,-0.0759277,-1.04785,0.0874023
719234,-0.0656738,-1.04785,0.0874023
723210,-0.0695801,-1.07788,0.0927734
727125,-0.0695801,-1.09424,0.0925293
731090,-0.0644531,-0.906738,0.0925293
735002,-0.157471,-1.14648,0.0336914
738937,-0.157471,-1.13477,0.0915527
742866,-0.134277,-1.07227,0.0915527
746804,-0.185059,-1.21045,0.0612793
750764,-0.185059,-1.21045,0.0681152
754658,-0.123779,-1.15112,0.0681152
758609,-0.0959473,-0.881348,0.0563965
762557,-0.0959473,-0.881348,0.0612793
766513,-0.0756836,-1.02637,0.0612793
770437,-0.0834961,-0.820068,0.0583496
774369,-0.0834961,-0.820068,0.0698242
778338,-0.132568,-0.942383,0.0698242
782249,-0.171387,-1.0603,0.0739746
786174,-0.171387,-1.0603,0.0710449
790120,-0.195557,-0.983154,0.0710449
794047,-0.239258,-1.24854,0.0559082
797975,-0.176758,-1.24854,0.0556641
801923,-0.155273,-0.965332,0.0556641
805932,-0.141113,-0.973877,0.107422
809883,-0.0786133,-0.973877,0.122559
813847,-0.145264,-1.04541,0.0600586
817768,-0.158936,-0.934814,0.109863
821694,-0.0964355,-0.934814,0.109863
825603,-0.204346,-1.21704,0.0212402
829544,-0.234375,-0.985352,0.0429688
833494,-0.234375,-0.985352,0.0429688
837415,-0.177246,-1.21143,0.0837402
841354,-0.177246,-1.00854,0.0246582
845283,-0.217529,-1.00854,0.0246582
849238,-0.0588379,-0.810547,0.125244
853167,-0.0588379,-1.03027,0.0478516
857079,-0.143311,-1.03027,0.0478516
861019,-0.181641,-0.908936,0.0524902
865005,-0.181641,-0.90918,0.0839844
868916,-0.161377,-1.03418,0.0839844
872855,-0.246826,-1.12476,0.0593262
876796,-0.246826,-1.11548,0.0996094
880745,-0.184082,-0.927979,0.0996094
884714,-0.166504,-1.1189,0.0876465
888618,-0.166504,-1.10059,0.0524902
892585,-0.161377,-0.788086,0.0524902
896506,-0.147949,-1.02124,0.0510254
900430,-0.147949,-1.02124,0.0595703
904321,-0.217773,-1.00415,0.0595703
908253,-0.206543,-1.02271,0.0874023
912188,-0.206543,-1.02271,0.0378418
916184,-0.255615,-1.16113,0.0378418
920124,-0.189941,-0.932861,0.0793457
924071,-0.189941,-0.932861,0.0424805
927980,-0.168213,-1.02319,0.0424805
931936,-0.173828,-0.949463,0.0749512
935921,-0.173828,-0.949463,0.121338
939836,-0.173096,-0.925537,0.121338
943780,-0.160645,-1.32007,0.0520019
947683,-0.285645,-1.32007,0.0183105
951598,-0.227295,-1.00122,0.0808105
955600,-0.205078,-1.19556,0.0546875
959497,-0.205078,-1.19556,0.0161133
963428,-0.197266,-0.983887,0.0161133
967352,-0.231201,-0.887207,0.141846
971274,-0.106201,-0.887207,0.141846
975229,-0.22168,-1.21729,0.0690918
979181,-0.22168,-1.11157,0.0285645
983104,-0.276367,-1.11157,0.0285645
987012,-0.222656,-1.12524,0.0454102
990951,-0.222656,-0.926758,0.0405273
994889,-0.236328,-0.926758,0.0405273
998819,-0.147217,-0.786621,0.101074
1002802,-0.147217,-0.775635,0.0788574
1006739,-0.239502,-0.963135,0.0788574
1010663,-0.313477,-1.07202,0.0715332
1014571,-0.313477,-1.08838,0.0710449
1018514,-0.262939,-1.08838,0.0710449
1022447,-0.239014,-0.905762,0.0722656
1026455,-0.239014,-0.892334,0.0566406
1030442,-0.198975,-0.767334,0.0566406
1034349,-0.26123,-0.993408,0.0617676
1038281,-0.26123,-0.97583,0.112061
1042230,-0.285889,-0.97583,0.112061
1046146,-0.291016,-1.14551,0.0541992
1050078,-0.291016,-1.14551,0.0229492
1054045,-0.320801,-0.895264,0.0229492
1057967,-0.206055,-0.866455,0.0771484
1061909,-0.206055,-0.866455,0.0239258
1065843,-0.303955,-1.00269,0.0239258
1069754,-0.320801,-1.00732,0.0991211
1073675,-0.320801,-1.00732,0.0932617
1077614,-0.290771,-1.15039,0.0932617
1081568,-0.279541,-0.906738,0.0368652
1085493,-0.279541,-0.906738,0.0378418
1089439,-0.252197,-0.818848,0.0378418
1093380,-0.30249,-0.953857,0.111816
1097334,-0.23999,-0.953857,0.105469
1101302,-0.376465,-1.02466,0.105469
1105193,-0.415527,-1.25195,0.065918
1109170,-0.353027,-1.25195,0.065918
1113090,-0.331543,-0.984863,0.0297852
1117027,-0.324707,-0.911377,0.0285645
1120977,-0.262207,-0.911377,0.0285645
1124890,-0.308838,-1.07837,0.0805664
1128866,-0.308838,-0.986816,0.149902
1132804,-0.27002,-0.986816,0.149902
1136822,-0.27417,-1.04761,0.0478516
1140756,-0.27417,-0.852783,-0.0270996
1144694,-0.354248,-0.852783,-0.0270996
1148622,-0.213623,-0.799316,0.106201
1152548,-0.213623,-0.999023,0.060791
1156511,-0.37793,-0.999023,0.060791
1160439,-0.375,-0.873779,0.121582
1164366,-0.375,-0.814209,0.0952148
1168321,-0.30835,-0.939209,0.0952148
1172264,-0.372314,-0.810303,0.00146484
1176185,-0.372314,-0.773193,0.0839844
1180127,-0.34375,-0.960693,0.0839844
1184059,-0.358154,-1.17627,0.105957
1187995,-0.358154,-1.17261,0.101807
1191943,-0.314697,-0.922607,0.101807
1195888,-0.309082,-0.998535,0.0256348
1199810,-0.309082,-0.998535,0.017334
1203756,-0.341553,-0.817871,0.017334
1207692,-0.329834,-1.01245,0.108643
1211612,-0.329834,-1.01245,0.0415039
1215532,-0.411621,-1.0542,0.0415039
1219466,-0.38208,-0.823242,0.100342
1223403,-0.38208,-0.823242,0.11792
1227333,-0.340576,-0.844971,0.0554199
1231280,-0.457031,-0.903564,0.0124512
1235186,-0.457031,-0.903564,0.00170898
1239145,-0.398926,-0.954834,0.126709
1243081,-0.424561,-1.06519,0.0839844
1247081,-0.424561,-1.06519,0.0695801
1251056,-0.41626,-0.831299,0.0695801
1254989,-0.39502,-1.104,0.0690918
1258902,-0.39502,-1.104,0.0690918
1262850,-0.404541,-0.989258,0.0654297
1266778,-0.430176,-0.819824,0.100098
1270720,-0.305176,-0.819824,0.100098
1274688,-0.408936,-0.968018,0.0288086
1278636,-0.408936,-0.758057,0.127197
1282579,-0.366455,-0.758057,0.127197
1286514,-0.413086,-1.07983,0.0197754
1290459,-0.413086,-0.796387,-0.0170898
1294417,-0.487549,-0.796387,-0.0170898
1298376,-0.316895,-0.677002,0.148926
1302321,-0.316895,-0.828369,0.0825195
1306259,-0.443848,-0.828369,0.0825195
1310195,-0.49707,-0.835938,0.0336914
1314124,-0.49707,-0.854004,0.0556641
1318060,-0.416992,-0.916504,0.0556641
1321994,-0.487061,-0.773438,0.0800781
1325949,-0.487061,-0.78833,0.135254
1329896,-0.356934,-0.78833,0.135254
1333803,-0.57373,-1.08643,0.00170898
1337729,-0.57373,-1.11621,0.14209
1341676,-0.456055,-0.928711,0.14209
1345619,-0.348145,-0.927246,0.0673828
1349566,-0.348145,-0.927246,-0.0395508
1353520,-0.512695,-0.783936,-0.0395508
1357541,-0.389893,-0.917725,0.127197
1361500,-0.389893,-0.917725,0.0849609
1365433,-0.4729,-1.07861,0.0849609
1369369,-0.453369,-0.670898,0.0422363
1373320,-0.453369,-0.670898,0.00927734
1377259,-0.452148,-0.754883,0.00927734
1381207,-0.480957,-0.697266,0.108643
1385161,-0.480957,-0.697266,0.115967
1389115,-0.502197,-0.895264,0.115967
1393094,-0.592529,-0.938477,-0.00878906
1397052,-0.592529,-0.938477,-0.0463867
1400977,-0.478516,-0.664551,0.0786133
1404921,-0.454346,-0.781738,0.108887
1408868,-0.454346,-0.781738,0.0791016
1412865,-0.55542,-0.924072,0.0791016
1416875,-0.552246,-0.902588,0.0854492
1420817,-0.489746,-0.902588,0.116211
1424797,-0.548828,-0.989258,0.0537109
1428711,-0.525391,-0.72168,0.0605469
1432689,-0.462891,-0.72168,0.0563965
1436591,-0.561768,-1.13989,-0.00610352
1440522,-0.51416,-0.910889,0.132812
1444446,-0.51416,-0.910889,0.132812
1448414,-0.360107,-0.834229,0.151367
1452342,-0.360107,-0.960449,-0.0839844
1456298,-0.601807,-0.960449,-0.0839844
1460247,-0.527832,-0.857422,0.0754395
1464172,-0.527832,-0.965576,0.137207
1468137,-0.436035,-0.965576,0.137207
1472032,-0.562988,-0.61084,0.060791
1475975,-0.562988,-0.696533,0.103516
1479915,-0.4646,-0.696533,0.103516
1483872,-0.61499,-0.882324,0.00634766
1487806,-0.61499,-0.884766,0.0976562
1491740,-0.569092,-0.697266,0.0976562
1495673,-0.493652,-0.752197,0.113037
1499629,-0.493652,-0.790771,0.0688477
1503576,-0.563721,-0.603271,0.0688477
1507504,-0.567139,-0.79541,0.0402832
1511467,-0.567139,-0.786377,0.0268555
1515403,-0.655273,-0.911377,0.0268555
1519344,-0.524658,-0.574951,0.106201
1523394,-0.524658,-0.574951,0.0273438
1527272,-0.574707,-0.811523,0.0273438
1531192,-0.596191,-0.70166,0.121582
1535123,-0.596191,-0.70166,0.0808105
1539073,-0.528564,-0.800293,0.0808105
1543053,-0.670898,-0.926758,-0.0537109
1546975,-0.670898,-0.926758,0.0947266
1550950,-0.584717,-0.654053,0.0947266
1554857,-0.506592,-0.799805,0.170166
1558812,-0.506592,-0.799805,0.185791
1562761,-0.658936,-0.868164,0.060791
1566696,-0.609375,-0.817871,0.0131836
1570653,-0.609375,-0.817871,0.0371094
1574592,-0.61792,-0.805908,0.0371094
1578544,-0.593506,-0.576904,0.164307
1582460,-0.531006,-0.576904,0.132568
1586390,-0.641602,-1.00684,0.0700684
1590325,-0.67041,-0.801758,0.0234375
1594248,-0.67041,-0.801758,0.0234375
1598177,-0.513672,-0.620605,0.0974121
1602141,-0.513672,-0.724121,-0.0090332
1606077,-0.630859,-0.724121,-0.0090332
1610019,-0.719727,-0.768066,0.048584
1613986,-0.719727,-0.947754,0.154785
1617933,-0.604004,-0.947754,0.154785
1621868,-0.637207,-0.673584,0.0905762
1625790,-0.637207,-0.648682,-0.0270996
1629738,-0.616699,-0.648682,-0.0270996
1633747,-0.658203,-0.85376,0.0266113
1637671,-0.658203,-0.616455,0.212158
1641611,-0.550049,-0.616455,0.212158
1645583,-0.559326,-0.697021,0.11377
1649480,-0.559326,-0.742432,-0.0273438
1653453,-0.685059,-0.679932,-0.0273438
1657389,-0.690918,-0.773438,0.0358887
1661325,-0.690918,-0.771729,0.117432
1665279,-0.662598,-0.771729,0.117432
1669250,-0.634766,-0.527588,0.098877
1673181,-0.634766,-0.546875,0.0253906
1677113,-0.684326,-0.859375,0.0253906
1681099,-0.705566,-0.692627,0.0947266
1685061,-0.705566,-0.692627,0.0717773
1688970,-0.594482,-0.803223,0.0717773
1692892,-0.768066,-0.886963,-0.0520019
1696850,-0.768066,-0.886963,0.0969238
1700792,-0.635498,-0.574707,0.0969238
1704739,-0.572998,-0.730225,0.189697
1708675,-0.572998,-0.730225,0.00341797
1712600,-0.804932,-0.828613,0.00341797
1716556,-0.673828,-0.641602,0.0522461
1720476,-0.673828,-0.641602,0.0617676
1724418,-0.714111,-0.690918,0.0617676
1728338,-0.723633,-0.382324,0.161133
1732299,-0.598633,-0.382324,0.150146
1736251,-0.752686,-0.92627,0.0251465
1740145,-0.805176,-0.713135,0.0383301
1744154,-0.805176,-0.713135,0.0253906
1748099,-0.591553,-0.500488,0.150391
1752024,-0.610352,-0.559814,-0.00463867
1755956,-0.735352,-0.559814,-0.00463867
1759882,-0.738281,-0.648438,0.0625
1763817,-0.738281,-0.716309,0.116211
1767789,-0.663574,-0.716309,0.116211
1771692,-0.705078,-0.428711,0.090332
1775615,-0.705078,-0.547852,0.00561523
1779531,-0.669189,-0.547852,0.00561523
1783482,-0.86377,-0.852539,-0.00708008
1787469,-0.86377,-0.599854,0.192871
1791395,-0.664062,-0.599854,0.192871
1795351,-0.669434,-0.688477,0.0913086
1799273,-0.669434,-0.709717,0.00561523
1803283,-0.807373,-0.709717,0.00561523
1807185,-0.729248,-0.731689,0.0646973
1811141,-0.729248,-0.698975,0.0998535
1815066,-0.689453,-0.761475,0.0998535
1819029,-0.750732,-0.499023,0.0297852
1822958,-0.750732,-0.457275,0.0471191
1826889,-0.752197,-0.707275,0.0471191
1830835,-0.768555,-0.616699,0.136719
1834796,-0.768555,-0.616699,0.0539551
1838721,-0.705322,-0.579346,0.0539551
1842653,-0.804932,-0.612549,-0.0393066
1846626,-0.804932,-0.612549,0.0910645
1850531,-0.722656,-0.467285,0.0910645
1854577,-0.675293,-0.659668,0.18457
1858510,-0.675293,-0.659668,0.0314941
1862473,-0.838867,-0.693115,0.0314941
1866392,-0.724854,-0.67627,0.0397949
1870343,-0.724854,-0.67627,0.079834
1874300,-0.753418,-0.583984,0.079834
1878274,-0.685547,-0.415771,0.149658
1882200,-0.685547,-0.415771,0.165039
1886163,-0.820801,-0.930176,0.0400391
1890090,-0.815186,-0.668457,0.0195312
1894015,-0.877686,-0.668457,0.019043
1897999,-0.654785,-0.537842,0.144043
1901917,-0.669434,-0.559326,0.0239258
1905855,-0.794434,-0.559326,0.0275879
1909790,-0.782227,-0.603271,0.0900879
1913737,-0.761963,-0.725342,0.0483398
1917717,-0.761963,-0.725342,0.0483398
1921640,-0.781738,-0.366943,0.0678711
1925605,-0.755127,-0.484375,0.0397949
1929526,-0.755127,-0.484375,0.0397949
1933479,-0.880371,-0.651855,0.0539551
1937441,-0.880371,-0.395752,0.154053
1941399,-0.72998,-0.395752,0.154053
1945312,-0.772217,-0.440918,0.0175781
1949293,-0.772217,-0.499023,0.0258789
1953202,-0.861816,-0.499023,0.0258789
1957152,-0.82251,-0.630615,0.0888672
1961092,-0.82251,-0.681396,0.123291
1965145,-0.839844,-0.681396,0.123291
1969060,-0.768799,-0.407227,0.0727539
1973017,-0.768799,-0.414551,-0.0214844
1976942,-0.845703,-0.602051,-0.0214844
1980888,-0.865234,-0.491699,0.112549
1984832,-0.865234,-0.438232,0.125977
1988800,-0.743896,-0.563232,0.125977
1992780,-0.887939,-0.460449,-0.0136719
1996666,-0.887939,-0.5,0.0690918
2000599,-0.796387,-0.3125,0.0690918
2004548,-0.797852,-0.477539,0.120605
2008492,-0.797852,-0.493164,0.0722656
2012428,-0.911865,-0.555664,0.0722656
2016378,-0.820557,-0.554932,0.0229492
2020319,-0.820557,-0.554932,0.0378418
2024254,-0.876221,-0.522217,0.0378418
2028207,-0.713135,-0.338867,0.207764
2032139,-0.713135,-0.338867,0.0471191
2036079,-0.893799,-0.753906,0.0471191
2040038,-0.886475,-0.487793,0.0104981
2044030,-0.886475,-0.487793,0.122559
2047933,-0.7229,-0.38501,0.122559
2051886,-0.865967,-0.473145,0.0595703
2055860,-0.865967,-0.473145,0.0415039
2059749,-0.891113,-0.552734,0.104004
2063696,-0.902832,-0.569092,0.0578613
2067631,-0.840332,-0.569092,0.0456543
2071577,-0.844238,-0.333252,0.0456543
2075603,-0.839844,-0.339844,0.0397949
2079544,-0.777344,-0.339844,0.0581055
2083503,-0.95459,-0.627686,0.0581055
2087434,-0.938965,-0.346436,0.155029
2091385,-0.751465,-0.346436,0.155029
2095349,-0.891357,-0.510986,-0.00292969
2099299,-0.905029,-0.419678,0.0187988
2103237,-0.905029,-0.419678,0.0187988
2107176,-0.825928,-0.54126,0.130127
2111118,-0.825928,-0.599121,0.0957031
2115045,-0.866211,-0.599121,0.0957031
2119008,-0.789795,-0.255127,0.045166
2123008,-0.789795,-0.541992,-0.00830078
2126926,-0.910889,-0.541992,-0.00830078
2130846,-0.892334,-0.408936,0.135498
2134791,-0.892334,-0.425049,0.13623
2138731,-0.834961,-0.425049,0.13623
2142689,-0.953613,-0.543945,-0.027832
2146630,-0.953613,-0.507568,0.0551758
2150563,-0.858643,-0.257568,0.0551758
2154524,-0.81665,-0.345459,0.134766
2158454,-0.81665,-0.338867,0.0681152
2162390,-0.95752,-0.526367,0.0681152
2166344,-0.877686,-0.391846,0.0275879
2170328,-0.877686,-0.398682,0.0666504
2174257,-0.930176,-0.398682,0.0666504
2178224,-0.791504,-0.152344,0.163818
2182144,-0.791504,-0.152344,0.0544434
2186141,-0.930664,-0.550293,0.0544434
2190073,-0.928955,-0.340088,0.027832
2194017,-0.928955,-0.340088,0.101562
2197941,-0.810791,-0.256104,0.101562
2201873,-0.910889,-0.391113,0.114502
2205825,-0.910889,-0.391113,0.10498
2209767,-0.901855,-0.36377,0.10498
2213691,-0.911377,-0.462158,0.00415039
2217623,-0.911377,-0.462158,0.0600586
2221567,-0.903076,-0.201172,0.0600586
2225497,-0.834961,-0.399902,0.120117
2229433,-0.834961,-0.399902,0.0637207
2233362,-1,-0.510986,0.0637207
2237282,-0.95166,-0.188721,0.0820312
2241216,-0.82666,-0.188721,0.0944824
2245178,-0.935547,-0.349121,-0.0305176
2249137,-0.911133,-0.133057,0.10376
2253134,-0.911133,-0.133057,0.10376
2257113,-0.884766,-0.393066,0.140381
2261073,-0.929688,-0.376221,0.0322266
2265001,-0.992188,-0.376221,0.0322266
2268950,-0.825684,-0.0732422,0.0537109
2272872,-0.825684,-0.44873,0.026123
2276814,-0.993896,-0.44873,0.026123
2280767,-0.906738,-0.286621,0.192139
2284721,-0.906738,-0.502686,0.0710449
2288665,-0.853027,-0.502686,0.0710449
2292580,-1.04883,-0.451172,-0.026123
2296510,-1.04883,-0.309814,0.117188
2300455,-0.811768,-0.309814,0.117188
2304383,-0.901611,-0.327637,0.115479
2308317,-0.901611,-0.349121,0.0627441
2312242,-0.96582,-0.411621,0.0627441
2316177,-0.898438,-0.362061,0.0158691
2320136,-0.898438,-0.366455,0.0959473
2324082,-0.95752,-0.303955,0.0959473
2328037,-0.828613,-0.0964355,0.140625
2331954,-0.828613,-0.113281,0.00170898
2335869,-1.03857,-0.550781,0.00170898
2339841,-0.925781,-0.250488,0.0231934
2343793,-0.925781,-0.250488,0.106445
2347747,-0.86377,-0.119385,0.106445
2351656,-0.967285,-0.264404,0.148193
2355602,-0.967285,-0.264404,0.0917969
2359548,-0.940674,-0.315674,0.0917969
2363562,-0.951416,-0.276855,-0.0183105
2367534,-0.951416,-0.276855,0.0544434
2371458,-0.930176,-0.00415039,0.0544434
2375407,-0.865234,-0.188965,0.177246
2379321,-0.865234,-0.188965,0.142578
2383262,-1.00781,-0.321777,0.0800781
2387204,-0.881348,-0.0756836,0.0104981
2391156,-0.881348,-0.0756836,0.0429688
2395112,-1.00879,-0.269043,-0.0195312
2399033,-1.00195,-0.0119629,0.206055
2402970,-0.876953,-0.0119629,0.230469
2406946,-0.937744,-0.342285,0.105469
2410859,-0.940186,-0.211914,-0.0490723
2414814,-1.00269,-0.211914,-0.0490723
2418727,-0.880371,-0.017334,0.0327148
2422729,-0.918457,-0.293457,0.0996094
2426644,-0.980957,-0.293457,0.0996094
2430598,-0.917969,-0.163086,0.187988
2434524,-0.917969,-0.273438,-0.00927734
2438481,-0.953857,-0.273438,-0.00927734
2442391,-1,-0.257568,-0.00415039
2446322,-1,-0.050293,0.154297
2450260,-0.884521,-0.050293,0.154297
2454207,-0.98584,-0.335938,0.139404
2458164,-0.98584,-0.229492,0.0363769
2462115,-0.953369,-0.229492,0.0363769
2466078,-0.975342,-0.246094,-0.0288086
2470008,-0.975342,-0.215332,0.157715
2474034,-0.932861,-0.152832,0.157715
2477965,-0.895264,-0.0175781,0.167725
2481925,-0.895264,-0.0012207,-0.0170898
2485810,-1.0542,-0.501221,-0.0170898
2489747,-0.936768,-0.138916,-0.00732422
2493689,-0.936768,-0.133545,0.100342
2497623,-0.915039,-0.00854492,0.100342
2501564,-0.955078,-0.101318,0.197266
2505543,-0.955078,-0.101318,0.0605469
2509436,-0.935791,-0.090332,0.0605469
2513366,-1.01074,-0.273926,-0.0410156
2517300,-1.01074,-0.273926,0.0844727
2521239,-0.946289,0.0573731,0.0844727
2525221,-0.917969,-0.0834961,0.206787
2529160,-0.917969,-0.0834961,0.0820312
2533088,-0.99292,-0.189697,0.0820312
2537042,-0.942871,0.0180664,-0.0478516
2540986,-0.942871,0.0180664,-0.0153809
2544880,-1.01221,-0.247803,0.0471191
2548804,-1.01562,0.043457,0.205811
2552727,-0.890625,0.043457,0.232422
2556694,-0.963379,-0.220703,0.107422
2560626,-0.967773,-0.23877,-0.0639648
2564568,-1.03027,-0.23877,-0.0900879
2568498,-0.917236,0.0554199,0.0349121
2572425,-0.90625,-0.1521,0.162109
2576362,-0.96875,-0.1521,0.162109
2580290,-0.931396,-0.00097656,0.140137
2584297,-0.931396,-0.212402,-0.029541
2588270,-0.995361,-0.212402,-0.029541
2592160,-1.01416,-0.223877,0.0129394
2596071,-1.01416,0.0742188,0.181152
2600013,-0.912842,0.0742188,0.181152
2603963,-0.966064,-0.0666504,0.135986
2607895,-0.966064,-0.199951,-0.00610352
2611814,-0.999023,-0.199951,-0.00610352
2615757,-0.971191,-0.136963,0.013916
2619689,-0.971191,-0.131104,0.164551
2623648,-0.950439,-0.00610352,0.164551
2627635,-0.927734,0.162598,0.151855
2631501,-0.927734,0.178223,-0.00952148
2635434,-1.03247,-0.196777,-0.00952148
2639368,-0.94873,0.00073242,-0.0136719
2643278,-0.94873,0.00073242,0.141846
2647214,-0.932617,0.0493164,0.141846
2651137,-0.984131,0.00024414,0.136475
2655079,-0.984131,0.00024414,0.0244141
2658995,-0.960693,-0.0153809,0.0244141
2662931,-1.02026,-0.188477,-0.0231934
2666857,-1.02026,-0.188477,0.130615
2670784,-0.915527,0.0856934,0.130615
2674721,-0.970947,0.00170898,0.173096
2678646,-0.970947,0.00170898,0.161621
2682580,-0.995605,-0.0385742,0.0366211
2686516,-0.953613,0.0915527,-0.0202637
2690484,-0.953613,0.0915527,-0.032959
2694440,-1.00635,-0.0517578,0.092041
2698404,-1.01562,0.225098,0.204834
2702341,-0.890625,0.225098,0.187988
2706262,-0.984375,0.0090332,0.0629883
2710203,-0.938721,-0.0517578,-0.0417481
2714109,-1.00122,-0.0517578,-0.0417481
2718056,-0.954834,0.105469,0.083252
2721996,-0.954834,-0.0446777,0.181396
2725969,-0.976807,-0.0446777,0.181396
2729905,-0.9021,0.175049,0.0932617
2733827,-0.9021,-0.176025,-0.0385742
2738344,-1.05029,-0.176025,-0.0385742
2741711,-0.95459,-0.00756836,0.0529785
2745660,-0.95459,0.220947,0.174561
2749750,-0.935547,0.220947,0.174561
2753538,-1.00513,0.0388184,0.098877
2757483,-1.00513,0.0319824,-0.0136719
2761401,-0.939941,0.0319824,-0.0136719
2765341,-1.01733,-0.0415039,0.0319824
2769271,-1.01733,-0.0402832,0.157227
2773195,-0.933594,0.209717,0.157227
2777178,-0.94751,0.22583,0.148438
2781070,-0.94751,0.22583,-0.0192871
2785008,-1.02026,-0.153809,-0.0192871
2788938,-0.91748,0.245117,0.0090332
2792901,-0.91748,0.245117,0.160889
2796805,-0.992432,0.00683594,0.160889
2800733,-0.928223,0.183105,0.133057
2804747,-0.928223,0.183105,0.0148926
2808681,-0.997314,0.10791,0.0148926
2812602,-0.993652,-0.130371,-0.00317383
2816526,-0.993652,-0.130371,-0.00170898
2820454,-0.902588,0.177002,0.123291
2824371,-1.01172,0.0537109,0.141357
2828320,-1.01172,0.0537109,0.146484
2832253,-0.935547,0.0876465,0.0214844
2836205,-0.937256,-0.0266113,-0.00048828
2840120,-0.999756,-0.0266113,-0.00146484
2844070,-0.967529,-0.154785,0.123535
2848007,-0.940674,0.291992,0.158691
2851967,-0.878174,0.291992,0.158691
2855933,-1.03809,0.0742188,0.0483398
2859760,-1.03809,0,-0.00585938
2863600,-0.937256,0,-0.00585938
2867548,-0.968262,0.0605469,0.0998535
2871485,-0.968262,0.0917969,0.148438
2875434,-0.945068,0.0917969,0.148438
2879365,-0.934082,0.453369,0.0639648
2883324,-0.934082,0.479736,0.0185547
2887270,-1.01758,-0.0827637,0.0185547
2891166,-0.90332,0.142334,0.0537109
2895081,-0.90332,0.13208,0.14624
2899047,-0.947754,0.44458,0.14624
2902946,-0.978271,0.240234,0.0874023
2906912,-0.978271,0.192627,0.00830078
2910827,-0.931885,0.317627,0.00830078
2914830,-0.977783,0.00390625,0.0732422
2918758,-0.977783,0.00390625,0.0878906
2922685,-0.901367,0.462891,0.0878906
2926652,-0.961426,0.368408,0.141602
2930548,-0.961426,0.368408,0.0280762
2934478,-0.943848,0.050293,0.0280762
2938423,-0.953857,0.342773,0.00732422
2942353,-0.953857,0.342773,0.159424
2946289,-0.989014,0.141357,0.159424
2950234,-0.883301,0.296387,0.118896
2954180,-0.883301,0.296387,0.0878906
2958115,-0.998535,0.220215,0.0253906
2962044,-0.956787,0.0637207,0.00805664
2966001,-0.956787,0.0637207,0.00048828
2969898,-0.9021,0.295166,0.125488
2973863,-0.934814,0.0996094,0.13916
2977807,-0.997314,0.0996094,0.13916
2981732,-0.905762,0.41333,0.00415039
2985620,-0.920654,0.0351562,0.0385742
2989562,-0.983154,0.0351562,0.0385742
2993491,-0.916748,0.12915,0.102783
2997421,-0.916748,0.382812,0.113037
3001367,-0.925537,0.382812,0.113037
3005260,-1.0061,0.336914,0.0651855
3009196,-1.0061,0.0622559,0.0361328
3013096,-0.86499,0.0622559,0.0361328
3017094,-0.957764,0.126465,0.081543
3020987,-0.957764,0.152344,0.119385
3025006,-0.919434,0.277344,0.119385
3028966,-0.940674,0.477539,0.098877
3032931,-0.940674,0.48999,0.0598144
3036852,-0.979736,-0.0725098,0.0598144
3040797,-0.881592,0.244385,0.0078125
3044738,-0.881592,0.200439,0.127197
3048688,-0.965088,0.325439,0.127197
3052624,-0.894043,0.240967,0.142822
3056578,-0.894043,0.240967,0.020752
3060554,-0.938965,0.345947,0.020752
3064501,-0.973877,0.108154,0.0241699
3068416,-0.973877,0.108154,0.0866699
3072369,-0.859863,0.456055,0.0866699
3076299,-0.990479,0.500732,0.145996
3080315,-0.990479,0.500732,0.0654297
3084312,-0.871094,0.263428,0.0654297
3088258,-0.930176,0.48584,-0.0166016
3092234,-0.930176,0.48584,0.12085
3096143,-0.979736,0.236084,0.12085
3100084,-0.81543,0.456543,0.160156
3104065,-0.81543,0.456543,0.179932
3107998,-0.95874,0.303955,0.0549316
3111923,-0.911377,0.189941,0.00366211
3115825,-0.911377,0.189941,0.0373535
3119760,-0.925049,0.390137,0.0998535
3123708,-0.9104,0.115723,0.19873
3127614,-0.9104,0.115723,0.191406
3131537,-0.893311,0.510742,0.00390625
3135467,-0.901611,0.178955,0.0251465
3139410,-0.964111,0.178955,0.0251465
3143339,-0.82666,0.269531,0.108154
3147280,-0.82666,0.504639,0.098877
3151219,-0.93457,0.504639,0.098877
3155159,-0.959717,0.500488,0.0852051
3159125,-0.959717,0.298096,0.0361328
3163036,-0.822998,0.298096,0.0361328
3167010,-0.898682,0.220947,0.0705566
3170943,-0.898682,0.454346,0.0776367
3174859,-0.883545,0.454346,0.0776367
3178808,-0.898926,0.638184,0.129395
3182786,-0.898926,0.626465,0.0844727
3186721,-0.940918,0.188965,0.0844727
3190721,-0.850586,0.442627,-0.00366211
3194700,-0.850586,0.48877,0.095459
3198624,-0.936279,0.42627,0.095459
3202569,-0.839355,0.536377,0.170654
3206494,-0.839355,0.546143,0.104004
3210425,-0.864502,0.421143,0.104004
3214364,-0.948975,0.280762,-0.0224609
3218315,-0.948975,0.288574,0.0124512
3222232,-0.858643,0.663574,0.0124512
3226203,-0.900879,0.348633,0.192139
3230102,-0.900879,0.348633,0.092041
3234068,-0.787598,0.322754,0.092041
3237994,-0.952148,0.366455,-0.0334473
3241916,-0.952148,0.366455,0.088623
3245854,-0.895752,0.280029,0.088623
3249790,-0.822754,0.477295,0.149658
3253741,-0.822754,0.477295,0.177246
3257672,-0.937744,0.459473,0.0522461
3261629,-0.843018,0.289795,0.0258789
3265562,-0.843018,0.289795,0.0361328
3269488,-0.853271,0.495361,0.0986328
3273441,-0.814209,0.357178,0.146729
3277414,-0.876709,0.357178,0.142334
3281332,-0.866699,0.670654,0.017334
3285309,-0.835693,0.36499,0.083252
3289241,-0.898193,0.36499,0.083252
3293168,-0.805176,0.385498,0.0756836
3297086,-0.766357,0.542236,0.0820312
3301076,-0.891357,0.542236,0.0820312
3305020,-0.89917,0.4375,0.105713
3308959,-0.89917,0.430664,0.0593262
3312873,-0.804199,0.430664,0.0593262
3316809,-0.887939,0.333984,0.0324707
3320754,-0.887939,0.553711,0.0610352
3324709,-0.850586,0.553711,0.0610352
3328624,-0.854736,0.684082,0.143799
3332593,-0.854736,0.284668,0.106445
3336501,-0.841309,0.284668,0.106445
3340449,-0.791016,0.456299,-0.00927734
3344370,-0.791016,0.453613,0.0178223
3348292,-0.90625,0.578613,0.0178223
3352257,-0.812744,0.540527,0.18457
3356146,-0.812744,0.516602,0.161865
3360086,-0.779297,0.454102,0.161865
3364027,-0.908691,0.237793,-0.0214844
3367986,-0.908691,0.237793,-0.0285645
3371921,-0.846924,0.671875,-0.0285645
3375844,-0.853027,0.456543,0.1875
3379791,-0.853027,0.456543,0.143311
3383736,-0.719238,0.45874,0.143311
3387661,-0.858643,0.412109,-0.0227051
3391588,-0.858643,0.412109,0.0358887
3395534,-0.831299,0.526611,0.0358887
3399477,-0.776367,0.745361,0.129395
3403413,-0.776367,0.745361,0.13916
3407354,-0.839844,0.568359,0.13916
3411354,-0.7854,0.591797,0.00097656
3415299,-0.7854,0.591797,0.0383301
3419222,-0.820312,0.678711,0.0383301
3423173,-0.849854,0.560547,0.128906
3427109,-0.787354,0.560547,0.148438
3431058,-0.772217,0.859863,0.0859375
3434994,-0.786621,0.427979,0.115479
3438933,-0.849121,0.427979,0.115479
3442869,-0.734131,0.690186,0.0429688
3446811,-0.724365,0.669189,0.0449219
3450754,-0.849365,0.669189,0.0449219
3454708,-0.806152,0.606934,0.124023
3458600,-0.806152,0.560059,0.127441
3462539,-0.712402,0.560059,0.127441
3466451,-0.80249,0.340332,0.0532227
3470358,-0.80249,0.71582,-0.0300293
3474277,-0.798096,0.71582,-0.0300293
3478223,-0.861572,0.702637,0.13623
3482154,-0.861572,0.733643,0.205566
3486073,-0.707031,0.233643,0.205566
3490033,-0.782959,0.537842,-0.0512695
3493997,-0.782959,0.504395,-0.050293
3497953,-0.882812,0.629395,-0.050293
3501871,-0.727051,0.562988,0.187256
3505816,-0.727051,0.562988,0.188965
3509758,-0.733154,0.562988,0.188965
3513701,-0.791504,0.307373,0.0100098
3517649,-0.791504,0.307373,-0.045166
3521638,-0.780762,0.789795,-0.045166
3525595,-0.783447,0.572266,0.183105
3529534,-0.783447,0.572266,0.132812
3533459,-0.697266,0.68042,0.132812
3537384,-0.808105,0.483643,0.0554199
3541329,-0.808105,0.483643,0.0195312
3545274,-0.763428,0.604004,0.0195312
3549169,-0.730957,0.728027,0.0722656
3553137,-0.730957,0.728027,0.12207
3557018,-0.80127,0.626709,0.12207
3560971,-0.798584,0.683838,0.0837402
3564913,-0.736084,0.683838,0.11792
3568859,-0.758057,0.745605,0.0554199
3572810,-0.756348,0.617188,0.0400391
3576728,-0.756348,0.617188,0.0439453
3580651,-0.695801,0.910156,0.0439453
3584601,-0.731689,0.393311,0.168945
3588542,-0.731689,0.393311,0.168945
3592480,-0.638672,0.715088,0.115723
3596430,-0.638672,0.750488,-0.0161133
3600392,-0.793213,0.750488,-0.0161133
3604330,-0.739746,0.649902,0.065918
3608288,-0.739746,0.575195,0.174561
3612188,-0.634277,0.575195,0.174561
3616121,-0.730469,0.444824,0.128174
3620080,-0.730469,0.886475,-0.00878906
3624027,-0.741211,0.886475,-0.00878906
3627949,-0.807129,0.907471,0.00830078
3631952,-0.807129,0.899902,0.173828
3635900,-0.639648,0.524902,0.173828
3639812,-0.640137,0.604004,0.106201
3643743,-0.640137,0.607666,-0.00561523
3647647,-0.739258,0.732666,-0.00561523
3651600,-0.735596,0.878174,0.0400391
3655536,-0.735596,0.878662,0.150635
3659458,-0.633301,0.691162,0.150635
3663399,-0.690186,0.443115,0.0788574
3667336,-0.690186,0.443115,0.045166
3671261,-0.666992,0.762939,0.045166
3675170,-0.711914,0.608887,0.134033
3679159,-0.711914,0.608887,0.0456543
3683053,-0.630615,0.814453,0.0456543
3686981,-0.770508,0.581299,0.0820312
3690926,-0.770508,0.581299,0.0693359
3694879,-0.639404,0.813477,0.131836
3698804,-0.695068,0.865967,0.0324707
3702759,-0.695068,0.865967,0.0385742
3706684,-0.694824,0.782471,0.0385742
3710622,-0.71875,0.66748,0.123047
3714552,-0.59375,0.66748,0.0773926
3718506,-0.647461,0.76001,0.139893
3722462,-0.657959,0.824463,0.0144043
3726382,-0.720459,0.824463,0.0144043
3730327,-0.640381,0.926758,0.0107422
3734258,-0.640381,0.318604,0.14917
3738220,-0.62207,0.318604,0.14917
3742182,-0.591797,0.611328,0.102539
3746168,-0.591797,0.635254,0.0427246
3750058,-0.753174,0.635254,0.0427246
3754022,-0.696045,0.661865,0.0861816
3757960,-0.696045,0.637451,0.0883789
3761874,-0.654785,0.637451,0.0883789
3765814,-0.65918,0.406982,0.125732
3769782,-0.65918,0.906494,0.0219727
3773688,-0.615479,0.906494,0.0219727
3777620,-0.722412,0.832764,0.0793457
3781563,-0.722412,0.862549,0.168945
3785505,-0.511963,0.612549,0.168945
3789444,-0.649658,0.79834,0.0109863
3793383,-0.649658,0.769043,0.064209
3797322,-0.59375,0.956543,0.064209
3801230,-0.592041,1.12134,0.0554199
3805164,-0.592041,1.12134,0.119873
3809094,-0.585693,0.823242,0.119873
3813059,-0.592529,0.707275,0.0568848
3816985,-0.592529,0.707275,0.0576172
3820927,-0.577881,1.0459,0.0576172
3824865,-0.594482,0.74292,0.130127
3828827,-0.594482,0.74292,0.0620117
3832732,-0.490723,0.867432,0.0620117
3836648,-0.642822,0.663818,0.027832
3840574,-0.642822,0.663818,0.00561523
3844487,-0.561035,0.94165,0.130615
3848437,-0.553711,0.937988,0.0930176
3852441,-0.616211,0.937988,0.0627441
3856404,-0.603516,0.791748,0.0627441
3860362,-0.600098,0.753418,0.0656738
3864284,-0.537598,0.753418,0.0644531
3868212,-0.570801,0.814453,0.126953
3872146,-0.580566,0.774414,0.0693359
3876066,-0.580566,0.774414,0.0693359
3880002,-0.596436,0.966309,0.0161133
3883954,-0.596436,0.412598,0.157959
3887910,-0.494873,0.412598,0.157959
3891854,-0.522461,0.784668,0.0742188
3895797,-0.522461,0.836914,0.00878906
3899736,-0.647217,0.836914,0.00878906
3903652,-0.583984,0.833252,0.106201
3907624,-0.583984,0.728027,0.141846
3911528,-0.494873,0.728027,0.141846
3915470,-0.591309,0.657715,0.0537109
3919395,-0.591309,0.644043,0.0205078
3923396,-0.529297,1.01904,0.0205078
3927371,-0.623291,0.927246,0.104736
3931288,-0.623291,0.924072,0.141602
3935225,-0.486572,0.611572,0.141602
3939156,-0.568115,0.765869,0.0571289
3943102,-0.568115,0.780518,0.0688477
3947043,-0.518311,0.843018,0.0688477
3950956,-0.512207,0.976074,0.0595703
3954881,-0.512207,0.976074,0.118164
3958867,-0.483398,0.786865,0.118164
3962771,-0.510498,0.747559,0.0637207
3966705,-0.510498,0.747559,0.0717773
3970631,-0.519531,1.14917,0.0717773
3974573,-0.535889,0.866455,0.0854492
3978518,-0.535889,0.866455,0.0144043
3982474,-0.455811,0.995361,0.0144043
3986375,-0.534912,0.588623,0.100342
3990305,-0.534912,0.588623,0.0876465
3994263,-0.423584,0.810547,0.150146
3998206,-0.417969,0.995117,0.0314941
4002120,-0.542969,0.995117,0.0332031
4006032,-0.532227,0.849121,0.0332031
4009994,-0.556885,0.64624,0.138428
4013920,-0.369385,0.64624,0.138428
4017843,-0.47583,0.855957,0.101807
4021804,-0.47583,0.905273,0.0380859
4025709,-0.47583,0.905273,0.0380859
4029657,-0.470459,1.13501,0.0593262
4033687,-0.470459,0.619385,0.121094
4037609,-0.414551,0.619385,0.121094
4041548,-0.439453,1.0354,0.0439453
4045457,-0.439453,1.02881,0.0649414
4049399,-0.494629,1.02881,0.0649414
4053339,-0.45459,0.905029,0.114502
4057301,-0.45459,0.873535,0.0991211
4061208,-0.409424,0.873535,0.0991211
4065185,-0.456299,0.646973,0.0744629
4069116,-0.456299,0.642578,0.0527344
4073037,-0.438232,1.08008,0.0527344
4076952,-0.49707,1.04639,0.110107
4080855,-0.49707,1.02612,0.118408
4084810,-0.335938,0.713623,0.118408
4088715,-0.453857,0.781494,0.0290527
4092666,-0.453857,0.781494,0.0681152
4096567,-0.453369,0.838623,0.0681152
4100486,-0.424561,1.0166,0.116943
4104450,-0.424561,1.0166,0.0895996
4108352,-0.489502,0.928955,0.0895996
4112312,-0.435791,0.72876,0.0759277
4116257,-0.435791,0.72876,0.0773926
4120188,-0.384766,1.08911,0.0773926
4124120,-0.414307,0.777588,0.0556641
4128063,-0.414307,0.777588,0.0356445
4131991,-0.351807,1.04224,0.0356445
4135948,-0.329346,0.570557,0.139893
4139913,-0.391846,0.570557,0.127197
4143880,-0.384033,0.98877,0.127197
4147796,-0.429199,1.23462,0.0200195
4151728,-0.429199,1.23462,0.0424805
4155639,-0.42041,1.07446,0.0424805
4159582,-0.383545,0.902588,0.130371
4163537,-0.258545,0.902588,0.130371
4167463,-0.316895,0.932861,0.097168
4171415,-0.316895,0.988037,0.0300293
4175337,-0.370117,0.988037,0.0300293
4179265,-0.35791,1.13525,0.0808105
4183202,-0.35791,0.625977,0.143799
4187159,-0.317383,0.625977,0.143799
4191131,-0.363037,0.751221,0.046875
4195026,-0.363037,0.936279,0.0908203
4198946,-0.369141,0.936279,0.0908203
4202901,-0.355469,0.959717,0.0895996
4206866,-0.355469,0.939941,0.0539551
4210764,-0.341309,1.06494,0.0539551
4214710,-0.355713,0.740479,0.0883789
4218662,-0.355713,0.7229,0.0969238
4222619,-0.298584,1.2229,0.0969238
4226544,-0.365234,0.973145,0.0681152
4230448,-0.365234,0.938721,0.0605469
4234370,-0.297852,1.00122,0.0605469
4238321,-0.307617,0.930176,0.0925293
4242246,-0.307617,0.930176,0.157471
4246212,-0.293213,0.941406,0.157471
4250109,-0.3396,1.37769,-0.00732422
4254157,-0.3396,1.37769,0.112793
4258059,-0.342529,1.03149,0.112793
4262024,-0.18457,0.811523,0.139893
4265976,-0.18457,0.811523,0.0205078
4269855,-0.379395,0.919922,0.0205078
4273801,-0.315186,0.886475,0.107178
4277764,-0.315186,0.886475,0.0783691
4281692,-0.317383,1.09009,0.0783691
4285606,-0.369141,0.941406,0.064209
4289525,-0.369141,0.941406,0.0627441
4293461,-0.273193,0.667969,0.125244
4297398,-0.292969,1.00586,0.0969238
4301359,-0.292969,1.00586,0.0969238
4305278,-0.365479,1.09839,0.0178223
4309209,-0.365479,1.21387,0.0830078
4313165,-0.297119,1.21387,0.0830078
4317145,-0.188965,0.875977,0.13501
4321007,-0.188965,0.718018,0.0556641
4324969,-0.199463,0.718018,0.0556641
4328873,-0.21582,1.12354,0.0883789
4332818,-0.21582,0.987793,0.0664062
4336756,-0.293945,0.987793,0.0664062
4340718,-0.365967,1.22095,0.0307617
4344636,-0.365967,1.19922,0.16626
4348584,-0.25293,0.824219,0.16626
4352533,-0.254883,0.943359,0.0700684
4356467,-0.254883,0.939697,0.0275879
4360418,-0.322998,1.1897,0.0275879
4364410,-0.203125,0.980469,0.11377
4368342,-0.203125,0.97583,0.0317383
4372257,-0.194824,1.28833,0.0317383
4376192,-0.152344,0.790039,0.144043
4380153,-0.152344,0.790039,0.0905762
4384074,-0.158203,0.993896,0.0905762
4388027,-0.259766,1.17773,0.0317383
4391955,-0.259766,1.17773,0.0610352
4395845,-0.248291,1.00293,0.0610352
4399764,-0.221924,1.27295,0.0732422
4403697,-0.221924,1.27295,0.159912
4407637,-0.172119,0.680176,0.159912
4411558,-0.188477,0.949951,0.0661621
4415497,-0.188477,0.949951,0.0942383
4419426,-0.259033,1.19824,0.0317383
4423358,-0.267334,1.24609,0.0410156
4427283,-0.267334,1.24609,0.0383301
4431215,-0.224121,1.27368,0.10083
4435144,-0.198242,0.814453,0.173584
4439079,-0.135742,0.814453,0.173584
4443025,-0.118896,0.786621,0.0788574
4447000,-0.118896,0.963867,0.0192871
4450907,-0.215332,0.963867,0.0192871
4454835,-0.250977,1.12109,0.0603027
4458746,-0.250977,1.23706,0.0869141
4462696,-0.243408,1.23706,0.0869141
4466615,-0.221436,0.91626,0.149902
4470549,-0.221436,0.831543,0.0876465
4474542,-0.105225,0.831543,0.0876465
4478473,-0.196533,0.921143,0.0390625
4482390,-0.196533,0.90625,0.0559082
4486327,-0.192871,0.96875,0.0559082
4490243,-0.230957,1.3042,0.0256348
4494202,-0.230957,1.25879,0.15332
4498097,-0.205078,0.883789,0.15332
4502036,-0.0952148,0.843262,0.14209
4505961,-0.0952148,0.871826,0.00415039
4509885,-0.178467,0.871826,0.00415039
4513848,-0.237305,1.04761,0.0373535
4517789,-0.237305,1.04761,0.108643
4521674,-0.206543,1.32007,0.108643
4525612,-0.236816,1.11548,0.123779
4529531,-0.236816,1.11548,0.100586
4533456,-0.159912,1.21924,0.100586
4537411,-0.060791,0.980469,0.101074
4541369,-0.060791,0.980469,0.0893555
4545262,-0.102539,0.799072,0.0268555
4549193,-0.0771484,1.24438,0.0131836
4553156,-0.139648,1.24438,0.0146484
4557049,-0.171875,1.01172,0.139648
4560996,-0.133057,1.26489,0.108643
4564910,-0.133057,1.26489,0.108643
4568841,-0.196045,1.05469,0.0751953
4572812,-0.242188,0.865967,0.0983887
4576741,-0.0546875,0.865967,0.0983887
4580658,-0.110107,0.945312,0.0219727
4584642,-0.110107,0.82373,0.105225
4588610,-0.144775,0.82373,0.105225
4592505,-0.122314,1.13525,0.127197
4596432,-0.122314,1.24048,0.0739746
4600354,-0.215332,1.24048,0.0739746
4604294,-0.166748,1.06226,0.0710449
4608259,-0.166748,1.00537,0.0646973
4612136,-0.0722656,1.13037,0.0646973
4616097,-0.0681152,0.86084,0.0952148
4620050,-0.0681152,0.873047,0.0812988
4623989,-0.0336914,0.998047,0.0812988
4627883,-0.0830078,1.09033,0.0893555
4631806,-0.0830078,1.11646,0.0666504
4635727,-0.122803,0.991455,0.0666504
4639659,-0.168701,1.20215,0.0615234
4643578,-0.168701,1.20215,0.110596
4647496,-0.144775,0.985107,0.110596
4651449,-0.143555,1.15771,0.074707
4655363,-0.143555,1.15771,0.125488
4659287,-0.0573731,1.16089,0.125488
4663268,-0.0561523,0.848877,0.059082
4667185,-0.0561523,0.848877,0.0336914
4671089,-0.0681152,1.03369,0.0336914
4675023,-0.0991211,0.955811,0.0969238
4678970,-0.0991211,0.955811,0.0959473
4682895,-0.124023,1.22363,0.0959473
4686827,-0.0778809,1.29517,0.0974121
4690748,-0.140381,1.29517,0.0776367
4694757,-0.110352,0.992432,0.0776367
4698674,-0.0678711,1.10693,0.0324707
4702603,-0.0678711,1.10693,0.0324707
4706553,-0.0361328,0.78833,0.0788574
4710448,-0.0361328,0.800049,0.103516
4714368,-0.0324707,0.800049,0.103516
4718347,-0.101318,0.926514,0.101074
4722220,-0.101318,0.981201,0.0593262
4726155,-0.173096,0.981201,0.0593262
4730087,-0.144043,1.26123,0.0759277
4734019,-0.144043,1.11597,0.0856934
4737979,-0.161865,1.11597,0.0856934
4741876,-0.067627,1.12915,0.076416
4745811,-0.067627,1.13794,0.118408
4749811,-0.0187988,1.07544,0.118408
4753715,0,1.00391,0.0834961
4757551,0,1.06079,0.0439453
4761506,-0.00317383,1.18579,0.0439453
4765412,-0.0551758,0.941406,0.0876465
4769333,-0.0551758,0.941406,0.0893555
4773300,-0.0515137,1.10278,0.0893555
4777185,-0.123535,1.12402,0.0805664
4781113,-0.123535,1.12402,0.109863
4785043,-0.100342,1.02686,0.109863
4788961,-0.0810547,1.20703,0.0681152
4792867,-0.0810547,1.20703,0.122314
4796803,-0.050293,0.952637,0.0598144
4800726,-0.00195313,1.04858,0.076416
4804655,-0.00195313,1.04858,0.113281
4808568,0.0251465,1.02539,0.113281
4812472,0.0473633,0.904053,0.0720215
4816413,-0.0151367,0.904053,0.0720215
4820326,-0.0397949,1.12134,0.0776367
4824253,-0.0397949,0.845215,0.112061
4828186,-0.048584,0.845215,0.112061
4832116,-0.0751953,1.18433,0.0456543
4836047,-0.0751953,1.06519,0.0830078
4839978,-0.0952148,1.06519,0.0830078
4843902,-0.0571289,1.04395,0.101318
4847838,-0.0571289,1.17749,0.0683594
4851760,-0.045166,1.17749,0.0683594
4855698,-0.0253906,0.966309,0.0644531
4859723,-0.0253906,0.955566,0.0688477
4863659,0.0270996,1.01807,0.0688477
4867497,0,1.06079,0.0861816
4871342,0,1.03467,0.0996094
4875279,-0.0273438,0.909668,0.0996094
4879223,-0.0483398,1.29126,0.0778809
4883149,-0.0483398,1.29126,0.106201
4887059,-0.0808105,1.05103,0.106201
4890988,-0.0593262,1.11597,0.0734863
4894911,-0.0593262,1.11597,0.0820312
4898835,-0.0219727,1.08374,0.0820312
4902780,-0.0183105,0.923584,0.0888672
4906723,-0.0183105,0.923584,0.095459
4910645,0.00097656,1.18945,0.095459
4914578,0.0126953,0.98877,0.0705566
4918527,-0.0498047,0.98877,0.0991211
4922443,-0.0419922,1.16309,0.0366211
4926378,-0.00439453,1.09595,0.0837402
4930287,-0.00439453,1.09595,0.121338
4934233,-0.0532227,0.984863,0.0588379
4938178,-0.0383301,1.10229,0.116211
4942077,0.0241699,1.10229,0.116211
4945981,-0.0131836,0.826904,0.106201
4949932,-0.0131836,1.08618,0.0275879
4953851,-0.0334473,1.08618,0.0275879
4957815,-0.0195312,0.927979,0.11377
4961725,-0.0195312,0.933105,0.117676
4965666,-0.0236816,0.933105,0.117676
4969756,-0.0651855,1.12012,0.0698242
4973586,-0.0651855,0.923828,0.118408
4977504,-0.0112305,0.923828,0.118408
4981415,0.00341797,1.0249,0.0307617
4985326,0.00341797,1.0271,0.050293
4989241,-0.0390625,1.0271,0.050293
4993174,0.0273438,1.021,0.0986328
4997079,0.0273438,1.04517,0.0600586
5001017,-0.0253906,1.23267,0.0600586
5004939,-0.00415039,0.956299,0.100098
5008865,-0.00415039,0.956299,0.0627441
5012797,0.0234375,1.18872,0.0627441
5016703,0.0412598,1.08813,0.0751953
5020659,0.0412598,1.08813,0.0847168
5024586,-0.0192871,0.975342,0.0847168
5028514,0.0290527,1.2627,0.117676
5032438,0.0290527,1.2627,0.105469
5036399,-0.0395508,1.00757,0.105469
5040286,-0.0224609,1.22192,0.059082
5044219,-0.0224609,1.22192,0.0424805
5048128,0.0290527,1.09668,0.10498
5052042,0.00561523,0.973633,0.0664062
5055946,0.00561523,0.973633,0.0664062
5059866,0.0202637,1.16309,0.0520019
5063769,0.0202637,0.930664,0.114014
5067700,0.0146484,0.930664,0.114014
5071636,0.00170898,1.09961,0.0578613
5075551,0.00170898,1.08252,0.0771484
5079548,0.00292969,1.08252,0.0771484
5083457,-0.0136719,1.02466,0.0898438
5087429,-0.0136719,1.15186,0.079834
5091318,0.00048828,1.15186,0.079834
5095249,0.0246582,0.882568,0.128418
5099176,0.0246582,0.886475,0.0673828
5103106,0.00927734,0.948975,0.0673828
5107022,0.013916,1.04736,0.0852051
5110924,0.013916,1.01831,0.0737305
5114868,-0.0202637,0.893311,0.0737305
5118792,-0.0224609,1.18628,0.0693359
5122708,-0.0224609,1.18628,0.0974121
5126678,-0.0344238,0.984863,0.0974121
5130562,-0.0361328,0.956787,0.0615234
5134494,-0.0361328,0.956787,0.0805664
5138434,0.0229492,1.10571,0.0805664
5142330,-0.00708008,0.956055,0.0544434
5146263,-0.00708008,0.956055,0.0349121
5150196,0.0302734,1.04834,0.0974121
5154082,0.012207,1.13843,0.0839844
5158034,0.012207,1.13843,0.0947266
5161928,-0.00561523,0.98291,0.0947266
5165851,-0.0417481,1.10718,0.0976562
5169767,0.020752,1.10718,0.0976562
5173674,0.00097656,1.00537,0.0717773
5177602,0.00097656,0.981689,0.0744629
5181540,0.0126953,0.981689,0.0744629
5185499,0.0219727,1.04883,0.0947266
5189458,0.0219727,0.991211,0.0720215
5193386,-0.00927734,0.991211,0.0720215
5197284,0.00073242,1.0542,0.0715332
5201178,0.00073242,1.08301,0.074707
5205083,-0.00073242,1.08301,0.074707
5208995,-0.00463867,1.06201,0.0637207
5212906,-0.00463867,1.00244,0.0849609
5216858,0.0192871,1.12744,0.0849609
5220785,0.0185547,1.03564,0.0844727
5224661,0.0185547,1.05322,0.0922852
5228591,0.0297852,1.05322,0.0922852
5232507,0.0307617,1.06641,0.074707
5236427,0.0307617,1.06641,0.0966797
5240401,0.0236816,1.02979,0.0966797
5244285,0.0134277,1.0271,0.0942383
5248197,0.0134277,1.0271,0.0769043
5252141,-0.00463867,1.01636,0.0769043
5256042,0.00708008,0.992188,0.0878906
5259970,0.00708008,0.992188,0.0717773
5263886,-0.00537109,0.988281,0.0717773
5267845,-0.00463867,0.987549,0.0666504
5271773,-0.00463867,0.987549,0.0822754
5275687,0.0090332,0.990479,0.0822754
5279735,0.0136719,1.0083,0.0749512
5283532,0.0136719,1.0083,0.0749512
5287466,0.0231934,1.01978,0.0847168
5291387,0.0231934,1.02051,0.0800781
5295284,0.0231934,1.02051,0.0800781
5299269,0.0192871,1.01587,0.0847168
5303186,0.0192871,1.02002,0.0871582
5307134,0.017334,1.02002,0.0871582
5311013,0.0195312,1.02441,0.0910645
5314908,0.0195312,1.01709,0.090332
5318831,0.0129394,1.01709,0.090332
5322771,0.0102539,1.01318,0.0834961
5326678,0.0102539,1.02002,0.0791016
5330558,0.0126953,1.02002,0.0791016
5334505,0.00585938,1.0127,0.0756836
5338409,0.00585938,1.0127,0.0756836
5342364,-0.00219727,1.02002,0.0756836
5346270,0.0090332,1.01367,0.0854492
5350150,0.0090332,1.01367,0.0698242
5354079,-0.00097656,1.00488,0.0698242
5357973,0.0107422,1.00928,0.0910645
5361903,0.0107422,1.00928,0.0932617
5365827,0.00976563,0.997803,0.0932617
5369747,0.0131836,1.00562,0.0891113
5373674,0.0131836,1.00562,0.097168
5377613,0.0192871,1.0127,0.097168
5381536,0.00976563,1.00684,0.0852051
5385493,0.00976563,1.00684,0.0776367
5389382,0.0065918,1.01001,0.0776367
5393290,0.00756836,1.00903,0.0803223
5397200,0.00756836,1.00903,0.0803223
5401109,0.00854492,1.00659,0.0769043
5405028,0.00854492,1.00098,0.0786133
5409012,0.00512695,1.00098,0.0786133
5412933,0.00317383,0.998047,0.0808105
5416861,0.00317383,0.999023,0.0756836
5420784,0.00195313,0.999023,0.0756836
5424704,0.0065918,0.995605,0.0773926
5428638,0.0065918,0.943115,0.0817871
5432564,0.0107422,1.00562,0.0817871
5436433,0.00610352,1.01123,0.088623
5440334,0.00610352,1.00586,0.090332
5444229,0.00610352,1.00586,0.090332
5448188,0.0134277,0.998047,0.0854492
5452095,0.0134277,0.998047,0.083252
5456018,0.00415039,1.00562,0.083252
5459932,0.00585938,1.01147,0.0773926
5463827,0.00585938,1.01147,0.0800781
5467740,0.00488281,1.00586,0.0800781
5471682,0.0109863,1.00659,0.0749512
5475568,0.0109863,1.00659,0.0715332
5479456,0.00732422,1.00659,0.0715332
5483388,0.0104981,1.0105,0.0751953
5487310,0.0104981,1.0105,0.0825195
5491216,0.0134277,1.00879,0.0825195
5495144,0.0158691,1.01514,0.0864258
5499072,0.0158691,1.01514,0.0864258
5502990,0.0158691,1.01904,0.0893555
5506922,0.0158691,1.00879,0.0888672
5510858,0.0148926,1.00879,0.0888672
5514779,0.0126953,1.01001,0.0834961
5518759,0.0126953,1.01685,0.0808105
5522674,0.0102539,1.01685,0.0808105
5526582,0.012207,1.00269,0.0844727
5530504,0.012207,1.00708,0.0778809
5534419,0.0146484,1.00708,0.0778809
5538356,0.0078125,1.00659,0.0788574
5542269,0.0078125,1.00293,0.0769043
5546191,0.0078125,1.00293,0.0769043
5550108,0.0100098,1.0083,0.0827637
5554020,0.0100098,1.0083,0.0859375
5557935,0.012207,1.00391,0.0859375
5561877,0.012207,1.00098,0.0847168
5565775,0.012207,1.00098,0.0854492
5569762,0.0163574,1.0061,0.0854492
5573601,0.0168457,1.01025,0.0791016
5577523,0.0168457,1.01025,0.0822754
5581424,0.0158691,1.0166,0.0822754
5585339,0.0153809,1.01733,0.0861816
5589334,0.0153809,1.01733,0.0908203
5593281,0.0144043,1.01978,0.0908203
5597199,0.0124512,1.00928,0.0759277
5601157,0.0124512,1.00928,0.0773926
5605048,0.0144043,1.01099,0.0773926
5608970,0.0148926,1.0105,0.0756836
5612926,0.0148926,1.0105,0.0756836
5616846,0.0161133,1.01294,0.0688477
5620739,0.0161133,1.01709,0.0793457
5624690,0.0126953,1.01709,0.0793457
5628583,0.00854492,1.00391,0.0822754
5632519,0.00854492,0.996826,0.0839844
5636450,0.00415039,0.996826,0.0839844
5640361,0.00683594,1.00269,0.0822754
5644284,0.00683594,1.06055,0.0856934
5648209,0.00390625,0.998047,0.0856934
5652123,0.00048828,1.00024,0.0839844
5656029,0.00048828,1.00293,0.0842285
5659930,0.00610352,1.00293,0.0842285
5663878,0.00854492,1.00317,0.0739746
5667781,0.00854492,1.00317,0.0791016
5671684,0.013916,1.00439,0.0791016
5675605,0.0148926,1.00562,0.076416
5679527,0.0148926,1.00562,0.0773926
5683463,0.0126953,1.01074,0.0773926
5687354,0.00634766,1.01074,0.0861816
5691307,0.00634766,1.01074,0.0915527
5695189,0.0129394,1.00854,0.0915527
5699198,0.00366211,1.00366,0.0854492
5703064,0.00366211,1.00366,0.0820312
5706962,0.00878906,0.999268,0.0820312
5710895,0.0102539,0.994873,0.0771484
5714829,0.0102539,0.994873,0.0771484
5718759,0.0107422,0.992432,0.0839844
5722706,0.00537109,0.997803,0.0810547
5726620,0.00537109,0.997803,0.0810547
5730506,0.00561523,1.00391,0.0805664
5734412,0.00561523,1.00269,0.0847168
5738359,0.00390625,1.00269,0.0847168
5742270,0.00830078,1.01758,0.0720215
5746176,0.00830078,1.00781,0.081543
5750090,0.0112305,1.00781,0.081543
5754010,0.00317383,0.998779,0.0788574
5757950,0.00317383,0.939697,0.081543
5761869,0.00244141,1.0022,0.081543
5765741,0.00512695,1.0061,0.0825195
5769652,0.00512695,1.00806,0.0791016
5773557,0.0100098,1.00806,0.0791016
5777508,0.0124512,1.00952,0.0839844
5781402,0.0124512,1.00952,0.0847168
5785319,0.0126953,1.0127,0.0847168
5789248,0.0158691,1.01318,0.0847168
5793182,0.0158691,1.01318,0.0808105
5797070,0.0183105,1.0144,0.0808105
5801009,0.0178223,1.01636,0.072998
5804914,0.0178223,1.01636,0.0732422
5808931,0.0166016,1.01392,0.0732422
5812834,0.00952148,1.01123,0.0749512
5816730,0.00952148,1.01123,0.0791016
5820626,0.0100098,1.01001,0.0791016
5824532,0.00708008,1.00562,0.0866699
5828461,0.00708008,1.00562,0.0866699
5832360,0.00585938,1.00244,0.0869141
5836273,0.00585938,1.00391,0.0849609
5840227,0.00927734,1.00391,0.0849609
5844121,0.00708008,0.993164,0.0849609
5848031,0.00708008,1.00659,0.0888672
5851968,0.0114746,1.00659,0.0888672
5855874,0.00610352,1.00952,0.0844727
5859782,0.00610352,1.00732,0.0812988
5863709,0.00927734,1.00732,0.0812988
5867618,0.0126953,1.00952,0.0793457
5871527,0.0126953,1.01367,0.0754395
5875505,0.015625,1.01367,0.0754395
5879390,0.0117188,1.01147,0.072998
5883300,0.0117188,1.01147,0.0759277
5887227,0.0197754,1.02002,0.0759277
5891157,0.0114746,1.01514,0.0759277
5895092,0.0114746,1.01514,0.0766602
5898984,0.0129394,1.0127,0.0766602
5902906,0.017334,1.00977,0.0744629
5906825,0.017334,1.00977,0.0881348
5910767,0.013916,1.00977,0.0881348
5914667,0.0166016,1.01001,0.0849609
5918635,0.0166016,1.01001,0.0861816
5922572,0.0148926,1.01367,0.0861816
5926487,0.0178223,1.00806,0.0844727
5930447,0.0178223,1.00806,0.0844727
5934318,0.0078125,1.0105,0.0820312
5938234,0.0078125,1.00781,0.0786133
5942149,0.00170898,1.00781,0.0786133
5946074,0.00854492,1.00513,0.0827637
5949981,0.00854492,1.00562,0.078125
5953874,0.00024414,1.00562,0.078125
5957789,0.00805664,0.991943,0.0791016
5961750,0.00805664,0.994385,0.0800781
5965651,-0.00024414,0.994385,0.0800781
5969552,0.00927734,1.0022,0.0820312
5973475,0.00927734,1.00122,0.0849609
5977390,0.00268555,1.00122,0.0849609
5981333,0.0141602,1.01123,0.0825195
5985207,0.0141602,1.01123,0.0795898
5989165,0.0146484,1.01465,0.0795898
5993058,0.0144043,1.01929,0.0869141
5996969,0.0144043,1.01929,0.0751953
6000887,0.00927734,1.01538,0.0751953
6004876,0.013916,1.00928,0.0839844
6008721,0.013916,1.00928,0.0803223
6012638,0.00952148,1.01172,0.0803223
6016546,0.0065918,1.00537,0.076416
6020492,0.0065918,1.00537,0.0803223
6024393,0.00390625,0.998535,0.0803223
6028359,0.00292969,1.00098,0.079834
6032268,0.00292969,1.00098,0.0869141
6036212,0.00683594,0.995605,0.0869141
6040154,0.00830078,0.998779,0.0861816
6044066,0.00830078,0.998779,0.0861816
6047981,0.0107422,1.00098,0.0854492
6051923,0.0107422,1.00513,0.081543
6055854,0.0129394,1.00513,0.081543
6059742,0.0107422,1.00708,0.081543
6063682,0.0107422,1.01196,0.0759277
6067625,0.00830078,1.01196,0.0759277
6071558,0.00756836,1.00146,0.081543
6075403,0.00756836,1.00854,0.078125
6079351,0.00927734,1.00854,0.078125
6083277,0.00683594,1.00415,0.0778809
6087169,0.00683594,1.00513,0.0805664
6091106,0.00976563,1.00513,0.0805664
6094972,0.0102539,1.00708,0.0817871
6098888,0.0102539,1.00708,0.0800781
6102807,0.013916,1.00684,0.0800781
6106725,0.0153809,1.01221,0.0827637
6110653,0.0153809,1.01221,0.0810547
6114544,0.0112305,1.02368,0.0810547
6118470,0.0144043,1.01758,0.0888672
6122406,0.0144043,1.01758,0.0861816
6126297,0.0158691,1.01416,0.0861816
6130227,0.0192871,1.01123,0.0834961
6134122,0.0192871,1.01123,0.0844727
6138105,0.0102539,1.00757,0.0844727
6142048,0.0141602,1.00488,0.074707
6145934,0.0141602,1.00488,0.074707
6149906,0.00976563,0.999512,0.0837402
6153813,0.00976563,1.00439,0.0810547
6157711,0.0104981,1.00439,0.0810547
6161630,0.00927734,1.00684,0.0800781
6165538,0.00927734,1.01245,0.0869141
6169458,0.0114746,1.01245,0.0869141
6173398,0.0136719,1.00732,0.0795898
6177318,0.0136719,1.00977,0.0847168
6181272,0.00488281,1.00977,0.0847168
6185164,0.0185547,1.01611,0.0751953
6189084,0.0185547,1.00879,0.0844727
6193026,0.0109863,1.00879,0.0844727
6196940,0.0112305,1.00415,0.0788574
6200860,0.0112305,1.00415,0.0876465
6204754,0.0114746,1.00195,0.0876465
6208671,0.00952148,1.0061,0.0791016
6212577,0.00952148,1.0061,0.0805664
6216499,0.00927734,1.00537,0.0805664
6220442,0.0114746,1.00195,0.0805664
6224348,0.0114746,1.00195,0.0803223
6228224,0.0141602,1.01709,0.0803223
6232158,0.017334,1.00488,0.0859375
6236075,0.017334,1.00488,0.0869141
6239988,0.0158691,1.01221,0.0869141
6243906,0.0166016,1.00903,0.0827637
6247878,0.0166016,1.00903,0.079834
6251806,0.0151367,1.00757,0.079834
6255706,0.012207,1.01855,0.0808105
6259746,0.012207,1.01855,0.0808105
6263565,0.0175781,1.02026,0.0810547
6267448,0.0175781,1.01245,0.0844727
