time,ax,ay,az
1298,-0.0212402,-0.985596,0.0754395
5204,-0.019043,-0.985352,0.0749512
9141,-0.019043,-0.985596,0.0749512
13104,-0.0192871,-0.985596,0.0749512
17071,-0.00805664,-0.991211,0.0678711
20967,-0.00805664,-0.988037,0.0751953
24902,-0.00976563,-0.988037,0.0751953
28843,-0.00878906,-1.00439,0.0695801
32799,-0.00878906,-1.01123,0.0690918
36727,-0.0119629,-1.01123,0.0690918
40648,-0.0197754,-0.987305,0.0520019
44585,-0.0197754,-0.98291,0.0695801
48545,-0.0153809,-0.98291,0.0695801
52468,-0.0212402,-0.978271,0.0627441
56411,-0.0212402,-0.97998,0.0617676
60366,-0.0288086,-0.97998,0.0617676
64308,-0.0168457,-0.978271,0.072998
68252,-0.0168457,-0.982178,0.0712891
72187,-0.0249023,-0.982178,0.0712891
76124,-0.0205078,-0.994873,0.0693359
80060,-0.0205078,-0.994873,0.0803223
84007,-0.0109863,-0.988037,0.0803223
87961,-0.0131836,-1.01099,0.0681152
91869,-0.0131836,-1.01099,0.065918
95896,-0.0158691,-0.989746,0.065918
99878,-0.0134277,-0.995117,0.0756836
103781,-0.0134277,-0.995117,0.0610352
107705,-0.0344238,-0.990234,0.0610352
111696,-0.0214844,-0.975586,0.0617676
115609,-0.0214844,-0.975586,0.0661621
119542,-0.0205078,-0.985596,0.0661621
123480,-0.0185547,-0.96875,0.0683594
127443,-0.0185547,-0.96875,0.0644531
131354,-0.0166016,-1.02368,0.0644531
135295,-0.0065918,-1.00464,0.0739746
139205,-0.0065918,-1.00464,0.0710449
143137,-0.00854492,-1.06348,0.0710449
147077,-0.00561523,-1.01831,0.0751953
150960,-0.00561523,-1.01831,0.0751953
154888,-0.00292969,-1.06055,0.076416
158804,-0.00292969,-1.04224,0.0700684
162729,-0.015625,-1.04224,0.0700684
166663,-0.0129394,-1.00806,0.0703125
170562,-0.0129394,-1.05469,0.0603027
174490,-0.0224609,-1.05469,0.0603027
178430,-0.0222168,-0.958984,0.0546875
182378,-0.0222168,-0.960693,0.0656738
186308,-0.0166016,-1.02319,0.0656738
190313,-0.00976563,-0.981445,0.0700684
194305,-0.00976563,-0.939453,0.0681152
198224,-0.0253906,-1.00195,0.0681152
202152,-0.0104981,-1.03296,0.0720215
206080,-0.0104981,-1.04541,0.0637207
210017,-0.0119629,-0.98291,0.0637207
213951,-0.0148926,-1.03784,0.0732422
217881,-0.0148926,-1.0105,0.0749512
221818,0.00024414,-1.0105,0.0749512
225770,-0.0112305,-0.966797,0.0756836
229710,-0.0112305,-0.966797,0.0661621
233605,-0.00463867,-1.02588,0.0661621
237547,-0.019043,-0.976318,0.0617676
241502,-0.019043,-0.976318,0.0622559
245433,-0.0236816,-0.997314,0.0622559
249375,-0.0288086,-1.01538,0.0690918
253324,-0.0288086,-1.01538,0.0688477
257276,-0.0302734,-0.979736,0.0688477
261243,-0.032959,-1.06299,0.0749512
265220,-0.032959,-1.06299,0.0744629
269097,-0.0334473,-1.04663,0.0744629
273036,-0.0124512,-1.07544,0.0722656
276963,-0.0124512,-1.07544,0.067627
280890,-0.017334,-1.0481,0.067627
284809,-0.059082,-1.01953,0.0703125
288712,0.00341797,-1.01953,0.0703125
292676,-0.0214844,-1.08154,0.0739746
296573,-0.0214844,-1.02075,0.0722656
300565,-0.0168457,-1.02075,0.0722656
304513,-0.0270996,-1.07568,0.0600586
308460,-0.0270996,-0.995361,0.0656738
312403,-0.0219727,-0.995361,0.0656738
316347,-0.0280762,-1.00879,0.0625
320264,-0.0280762,-1.04419,0.0737305
324199,-0.0310059,-1.04419,0.0737305
328157,-0.032959,-0.987793,0.0754395
332138,-0.032959,-0.9646,0.0568848
336042,-0.0422363,-1.0271,0.0568848
339998,-0.0214844,-1.00854,0.0742188
343918,-0.0214844,-1.04419,0.0739746
347910,-0.027832,-0.981689,0.0739746
351801,-0.0200195,-1.02295,0.0771484
355744,-0.0200195,-1.00366,0.0673828
359646,-0.0300293,-1.00366,0.0673828
363586,-0.0268555,-1.01099,0.0725098
367515,-0.0268555,-1.01099,0.0595703
371441,-0.0412598,-1.01855,0.0595703
375430,-0.0512695,-1.05957,0.0617676
379327,-0.0512695,-1.05957,0.0654297
383261,-0.0368652,-1.06299,0.0654297
387179,-0.0446777,-1.04272,0.0632324
391130,-0.0446777,-1.04272,0.0620117
395049,-0.0402832,-1.0896,0.0620117
398950,-0.0192871,-1.03369,0.0720215
402886,-0.0192871,-1.03369,0.0639648
406831,-0.0263672,-1.07642,0.0639648
410802,-0.0180664,-1.05615,0.0712891
414730,-0.0180664,-1.05615,0.0810547
418664,-0.0266113,-1.03174,0.0810547
422580,-0.0246582,-1.0564,0.0666504
426512,-0.0246582,-1.0564,0.0666504
430437,-0.0354004,-1.05957,0.0671387
434364,-0.0354004,-1.01294,0.0705566
438304,-0.0297852,-1.01294,0.0705566
442224,-0.0473633,-1.04517,0.059082
446172,-0.0473633,-0.980225,0.0678711
450111,-0.0341797,-0.980225,0.0678711
454034,-0.043457,-1.01758,0.059082
457986,-0.043457,-0.962891,0.0620117
461925,-0.0305176,-0.962891,0.0620117
465829,-0.0305176,-0.968018,0.0605469
469767,-0.0305176,-0.947754,0.0644531
473708,-0.0383301,-1.01025,0.0644531
477651,-0.0512695,-1.00635,0.064209
481563,-0.0512695,-1.03906,0.0632324
485488,-0.0622559,-1.10156,0.0632324
489409,-0.0671387,-1.07642,0.0693359
493340,-0.0671387,-1.07642,0.0617676
497277,-0.048584,-1.0835,0.0617676
501211,-0.0556641,-1.11646,0.0737305
505132,-0.0556641,-1.11646,0.0842285
509065,-0.0217285,-1.05518,0.0842285
513016,-0.0397949,-1.11279,0.0722656
516973,-0.0397949,-1.11279,0.0639648
520948,-0.0412598,-1.03442,0.0639648
524887,-0.0375977,-1.04541,0.0751953
528815,-0.0375977,-1.04541,0.0668945
532753,-0.0556641,-1.04199,0.0668945
536690,-0.0595703,-0.975342,0.0632324
540642,-0.0595703,-0.975342,0.0773926
544583,-0.0668945,-1.04614,0.0773926
548529,-0.112305,-0.960938,0.067627
552460,-0.0498047,-0.960938,0.115479
556416,-0.0588379,-0.963379,0.0529785
560368,-0.00292969,-0.998047,0.0634766
564370,-0.0654297,-0.998047,0.0634766
568250,-0.0703125,-0.964111,0.0664062
572180,-0.0930176,-1.0166,0.0673828
576107,-0.0930176,-1.0166,0.0673828
580048,-0.0952148,-1.05859,0.0671387
583981,-0.0952148,-1.04663,0.0773926
587958,-0.0688477,-1.04663,0.0773926
591861,-0.0893555,-1.08081,0.0637207
595824,-0.0893555,-1.07642,0.0783691
599773,-0.0666504,-1.07642,0.0783691
603670,-0.060791,-1.10889,0.0834961
607592,-0.060791,-1.09009,0.0739746
611531,-0.0532227,-1.02759,0.0739746
615471,-0.0671387,-1.05859,0.0522461
619412,-0.0671387,-1.01709,0.0617676
623332,-0.0610352,-1.01709,0.0617676
627262,-0.0830078,-1.0061,0.0644531
631265,-0.0830078,-1.04761,0.0610352
635195,-0.10083,-1.04761,0.0610352
639129,-0.0930176,-0.97998,0.0686035
643074,-0.0930176,-0.97998,0.050293
647042,-0.11792,-1.07935,0.050293
650957,-0.0854492,-1.0105,0.0634766
654899,-0.0854492,-1.0105,0.0778809
658827,-0.0825195,-0.994141,0.0778809
662764,-0.0620117,-0.970215,0.100342
666703,-0.0620117,-0.970215,0.0817871
670630,-0.0910645,-1.0166,0.0817871
674554,-0.100342,-1.06372,0.0766602
678480,-0.100342,-1.06372,0.110107
682444,-0.106445,-1.0188,0.0476074
686349,-0.104492,-1.00879,0.0551758
690290,-0.104492,-1.00879,0.0483398
694218,-0.118652,-1.06079,0.0483398
698147,-0.123047,-1.09644,0.0737305
702086,-0.123047,-1.09644,0.120117
706052,-0.107178,-1.1145,0.0576172
709944,-0.123779,-1.11475,0.0454102
713894,-0.123779,-1.11475,0.0454102
717816,-0.059082,-0.990234,0.0805664
721748,-0.059082,-1.06372,0.0834961
725679,-0.0739746,-1.06372,0.0834961
729618,-0.0808105,-0.946045,0.0822754
733567,-0.0808105,-0.995605,0.0913086
737517,-0.104736,-0.995605,0.0913086
741510,-0.140137,-1.02881,0.0644531
745438,-0.140137,-1.05273,0.0444336
749364,-0.182861,-1.05273,0.0444336
753316,-0.135498,-1.08228,0.0830078
757273,-0.135498,-1.06763,0.0578613
761168,-0.138916,-1.00513,0.0578613
765140,-0.0922852,-0.970459,0.0600586
769053,-0.0922852,-0.969727,0.0454102
772974,-0.088623,-1.03223,0.0454102
776918,-0.110352,-0.989746,0.0563965
780862,-0.110352,-0.979736,0.0649414
784795,-0.122559,-1.04224,0.0649414
788723,-0.150146,-1.04004,0.0651855
792649,-0.150146,-1.04004,0.0649414
796600,-0.186768,-1.14087,0.0649414
800580,-0.148926,-1.05396,0.0876465
804498,-0.148926,-1.05396,0.0817871
808416,-0.138428,-1.06445,0.0817871
812336,-0.138184,-1.02271,0.0610352
816266,-0.138184,-1.02271,0.0280762
820217,-0.0910645,-0.929688,0.0905762
824166,-0.108398,-0.0957031,-0.00415039
828111,-0.108398,-0.0957031,-0.0444336
832014,-0.240234,-0.905029,0.0180664
835973,-0.216553,-1.80908,0.0952148
839865,-0.279053,-1.80908,0.120361
843798,-0.185791,-1.51465,0.120361
847723,-0.187012,-1.05005,0.0861816
851711,-0.0620117,-1.05005,0.0861816
855637,0.0373535,-0.966553,0.164307
859573,0.0373535,-1.09863,0.145996
863508,-0.0231934,-1.09863,0.145996
867428,-0.16333,-1.20361,0.0861816
871363,-0.16333,-1.18091,0.0471191
875316,-0.246826,-1.18091,0.0471191
879224,-0.25293,-1.13965,-0.00097656
883173,-0.25293,-1.02002,-0.043457
887112,-0.244873,-1.02002,-0.043457
891038,-0.140625,-0.861084,0.0461426
894935,-0.140625,-0.813721,0.0439453
898863,-0.137451,-0.813721,0.0439453
902829,-0.165771,-0.881592,0.0664062
906757,-0.165771,-0.932861,0.107178
910701,-0.19873,-0.995361,0.107178
914636,-0.239014,-1.11499,0.0646973
918572,-0.239014,-1.11499,0.101562
922473,-0.228271,-1.00659,0.101562
926437,-0.155762,-0.927246,0.161865
930355,-0.155762,-0.927246,0.114502
934286,-0.160645,-0.87085,0.114502
938233,-0.208984,-0.934814,0.0820312
942178,-0.208984,-0.934814,0.0576172
946150,-0.251709,-1.07178,0.0576172
950079,-0.255371,-1.04858,0.0349121
954011,-0.255371,-1.04858,0.0185547
957918,-0.243652,-1.04419,0.0185547
961957,-0.197754,-0.895264,0.0134277
965903,-0.197754,-0.895264,0.00512695
969822,-0.147705,-0.895264,0.067627
973781,-0.130859,-1.01831,-0.00488281
977713,-0.255859,-1.01831,-0.0605469
981643,-0.269043,-1.07373,0.0644531
985558,-0.283447,-1.06299,0.125244
989478,-0.220947,-1.06299,0.125244
993527,-0.242432,-0.957764,0.0964355
997493,-0.212646,-0.940918,0.111816
1001435,-0.212646,-0.940918,0.111816
1005398,-0.20752,-0.956543,0.118164
1009345,-0.20752,-1.04297,0.0915527
1013254,-0.275391,-1.04297,0.0915527
1017184,-0.268066,-1.10645,0.0808105
1021114,-0.268066,-1.06689,0.0571289
1025049,-0.244141,-1.06689,0.0571289
1028972,-0.231201,-0.935791,0.0263672
1032903,-0.231201,-0.918457,0.0397949
1036858,-0.208252,-0.918457,0.0397949
1040795,-0.285156,-0.977539,0.0168457
1044764,-0.285156,-0.95459,0.0429688
1048691,-0.298584,-1.14209,0.0429688
1052615,-0.281006,-1.04541,0.0512695
1056567,-0.281006,-1.05396,0.0522461
1060484,-0.288818,-0.991455,0.0522461
1064420,-0.241943,-0.970215,0.0854492
1068387,-0.241943,-0.963379,0.124268
1072304,-0.269043,-1.02588,0.124268
1076250,-0.272217,-1.13965,0.117188
1080197,-0.272217,-1.13965,0.0820312
1084108,-0.270264,-1.09448,0.0820312
1088061,-0.251465,-0.953857,0.0649414
1091998,-0.251465,-0.953857,0.0678711
1095939,-0.248291,-0.967285,0.0678711
1099903,-0.32251,-1.0481,0.0583496
1103892,-0.32251,-1.0481,0.0605469
1107818,-0.327637,-1.10034,0.0605469
1111740,-0.276611,-0.923828,0.0524902
1115707,-0.276611,-0.923828,0.0512695
1119621,-0.2771,-0.852539,-0.0112305
1123564,-0.277344,-0.810303,0.0144043
1127481,-0.277344,-0.810303,0.012207
1131410,-0.331543,-1.05005,0.074707
1135346,-0.373779,-1.04932,0.0979004
1139275,-0.373779,-1.04932,0.0703125
1143232,-0.324219,-0.944092,0.132812
1147166,-0.321045,-0.918213,0.0554199
1151083,-0.321045,-0.918213,0.0554199
1155022,-0.3479,-0.989502,0.0549316
1158978,-0.3479,-1.09277,0.128174
1162886,-0.32666,-1.09277,0.128174
1166828,-0.288086,-0.938232,0.127197
1170773,-0.288086,-0.900146,0.0366211
1174705,-0.310547,-0.900146,0.0366211
1178657,-0.318359,-0.804443,0.0415039
1182581,-0.318359,-1.0957,0.0270996
1186514,-0.379395,-1.0957,0.0270996
1190447,-0.428467,-1.03345,0.03125
1194383,-0.428467,-1.03369,0.0908203
1198327,-0.333496,-0.846191,0.0908203
1202258,-0.335205,-0.781738,0.0297852
1206215,-0.335205,-0.759521,0.0202637
1210136,-0.399902,-0.884521,0.0202637
1214141,-0.370605,-0.986816,0.115723
1218082,-0.370605,-0.961426,0.109619
1222021,-0.375244,-0.898926,0.109619
1225952,-0.403076,-0.955322,0.0520019
1229899,-0.403076,-0.955322,0.109863
1233842,-0.390137,-0.956543,0.109863
1237770,-0.384521,-1.05664,0.106201
1241707,-0.384521,-1.05664,0.0429688
1245663,-0.379639,-0.943359,0.0429688
1249617,-0.336914,-0.81543,0.0849609
1253597,-0.336914,-0.81543,0.0837402
1257498,-0.346191,-0.816895,0.0837402
1261472,-0.43335,-1.07886,0.0192871
1265404,-0.43335,-1.07886,0.0273438
1269343,-0.436523,-0.929688,0.0273438
1273279,-0.399902,-0.897949,0.0717773
1277224,-0.399902,-0.897949,0.10498
1281152,-0.423096,-0.774414,0.0424805
1285149,-0.377197,-1.0564,0.0690918
1289045,-0.439697,-1.0564,0.0698242
1293020,-0.43457,-0.917236,0.0698242
1296910,-0.434326,-0.785889,0.110107
1300855,-0.371826,-0.785889,0.110107
1304790,-0.393311,-0.851807,0.0644531
1308738,-0.393311,-0.949463,0.0717773
1312695,-0.478271,-0.949463,0.0717773
1316644,-0.389893,-0.934326,0.140869
1320594,-0.389893,-0.799316,0.065918
1324637,-0.421875,-0.799316,0.065918
1328562,-0.407471,-0.787842,0.0454102
1332491,-0.407471,-0.975586,0.0102539
1336462,-0.493164,-0.975586,0.0102539
1340371,-0.453857,-0.925049,0.101562
1344315,-0.453857,-0.842529,0.0725098
1348266,-0.422852,-0.842529,0.0725098
1352230,-0.483398,-0.806152,-0.0151367
1356146,-0.483398,-0.765137,0.0695801
1360100,-0.462158,-0.890137,0.0695801
1364033,-0.453613,-0.974121,0.0874023
1368001,-0.453613,-0.960449,0.0881348
1371955,-0.459473,-0.772949,0.0881348
1375897,-0.462646,-0.826904,0.0664062
1379822,-0.462646,-0.825684,0.122559
1383769,-0.464111,-0.825684,0.122559
1387714,-0.498047,-0.932617,0.0847168
1391663,-0.498047,-0.932617,0.0544434
1395599,-0.500732,-0.855225,0.0544434
1399536,-0.479492,-0.78125,0.0898438
1403479,-0.479492,-0.78125,0.0942383
1407425,-0.476562,-0.773438,0.0942383
1411362,-0.530029,-0.968018,0.0361328
1415294,-0.530029,-0.968018,0.0314941
1419235,-0.51123,-0.814697,0.0314941
1423178,-0.498291,-0.823486,0.0378418
1427110,-0.498291,-0.823486,0.0202637
1431061,-0.496826,-0.708984,0.0827637
1435114,-0.540771,-0.948975,0.0771484
1439022,-0.540771,-0.948975,0.0717773
1442971,-0.574219,-0.893799,0.00927734
1446957,-0.604248,-0.683594,0.117676
1450863,-0.479248,-0.683594,0.0908203
1454799,-0.48877,-0.734619,0.0908203
1458741,-0.458496,-0.900391,0.0595703
1462668,-0.583496,-0.900391,0.0595703
1466608,-0.51001,-0.833496,0.125977
1470552,-0.527832,-0.748779,0.0908203
1474500,-0.527832,-0.748779,0.0908203
1478433,-0.525146,-0.710205,0.0322266
1482356,-0.525146,-0.914795,0.0344238
1486288,-0.603027,-0.914795,0.0344238
1490258,-0.543457,-0.848389,0.119629
1494167,-0.543457,-0.719727,0.0786133
1498119,-0.51709,-0.719727,0.0786133
1502058,-0.566162,-0.779541,-0.0109863
1506010,-0.566162,-0.833984,0.0307617
1509932,-0.586182,-0.833984,0.0307617
1513882,-0.556396,-0.864258,0.0964355
1517828,-0.556396,-0.82959,0.0725098
1521783,-0.553955,-0.70459,0.0725098
1525732,-0.578613,-0.77832,0.0441894
1529671,-0.578613,-0.7854,0.0834961
1533652,-0.586182,-0.7854,0.0834961
1537631,-0.57959,-0.825684,0.095459
1541589,-0.57959,-0.859131,0.046875
1545555,-0.588379,-0.796631,0.046875
1549517,-0.589844,-0.748535,0.0725098
1553474,-0.589844,-0.714111,0.151855
1557421,-0.550781,-0.714111,0.151855
1561339,-0.615967,-0.885742,0.0559082
1565325,-0.615967,-0.885742,-0.00463867
1569218,-0.622803,-0.765869,-0.00463867
1573209,-0.57959,-0.711426,0.0637207
1577108,-0.57959,-0.711426,0.124268
1581049,-0.541504,-0.642578,0.124268
1585021,-0.668213,-0.879395,0.0258789
1588944,-0.668213,-0.879395,0.0231934
1592895,-0.658691,-0.860107,0.0231934
1596824,-0.569824,-0.677734,0.0964355
1600762,-0.569824,-0.677734,0.122803
1604688,-0.590332,-0.647705,0.0603027
1608655,-0.588867,-0.876709,0.0705566
1612602,-0.651367,-0.876709,0.11377
1616535,-0.623291,-0.824707,0.11377
1620510,-0.592529,-0.699707,0.113281
1624416,-0.592529,-0.699707,0.0751953
1628361,-0.645508,-0.722656,0.0126953
1632325,-0.683838,-0.853027,0.0627441
1636277,-0.683838,-0.853027,0.0627441
1640182,-0.618164,-0.818359,0.140625
1644111,-0.618164,-0.643311,0.10498
1648048,-0.585205,-0.643311,0.10498
1651986,-0.635742,-0.710449,-0.0129394
1656003,-0.635742,-0.758545,0.00585938
1659941,-0.708008,-0.758545,0.00585938
1663878,-0.609375,-0.766357,0.140381
1667798,-0.609375,-0.60083,0.0632324
1671725,-0.662598,-0.60083,0.0632324
1675671,-0.692383,-0.707275,0.0148926
1679606,-0.692383,-0.692627,0.0715332
1683561,-0.680176,-0.692627,0.0715332
1687495,-0.663086,-0.711182,0.103271
1691439,-0.663086,-0.712891,0.0576172
1695378,-0.676025,-0.650391,0.0576172
1699335,-0.685547,-0.65918,0.0773926
1703289,-0.685547,-0.679443,0.148193
1707249,-0.665527,-0.679443,0.148193
1711160,-0.682861,-0.749023,0.060791
1715101,-0.682861,-0.749023,0.0324707
1719042,-0.697754,-0.656982,0.0324707
1722986,-0.700684,-0.653809,0.0517578
1726924,-0.700684,-0.653809,0.165283
1730864,-0.625732,-0.591309,0.165283
1734812,-0.73999,-0.789551,0.0202637
1738758,-0.73999,-0.789551,-0.0180664
1742705,-0.745117,-0.727783,-0.0180664
1746687,-0.668945,-0.552734,0.0966797
1750638,-0.668945,-0.552734,0.0759277
1754590,-0.634521,-0.555664,0.138428
1758480,-0.780273,-0.817627,0.0200195
1762412,-0.780273,-0.817627,0.0478516
1766446,-0.72168,-0.687256,0.0478516
1770393,-0.709473,-0.562988,0.11792
1774339,-0.646973,-0.562988,0.121826
1778318,-0.701904,-0.533447,0.0593262
1782228,-0.732422,-0.799316,0.0620117
1786162,-0.794922,-0.799316,0.0112305
1790090,-0.724854,-0.711426,0.13623
1794033,-0.731445,-0.507568,0.0881348
1798006,-0.668945,-0.507568,0.0881348
1801923,-0.757324,-0.621338,-0.0170898
1805854,-0.757324,-0.726074,0.0627441
1809796,-0.774414,-0.726074,0.0627441
1813754,-0.695312,-0.70459,0.143799
1817663,-0.695312,-0.51709,0.0195312
1821639,-0.73584,-0.51709,0.0195312
1825544,-0.725342,-0.601562,0.0185547
1829481,-0.725342,-0.622803,0.0419922
1833418,-0.799561,-0.622803,0.0419922
1837383,-0.731934,-0.697754,0.126465
1841312,-0.731934,-0.697021,0.0307617
1845264,-0.766113,-0.634521,0.0307617
1849181,-0.769531,-0.556885,0.03125
1853145,-0.769531,-0.555908,0.164795
1857133,-0.694824,-0.555908,0.164795
1861132,-0.798828,-0.729004,0.0876465
1865078,-0.798828,-0.728271,0.0305176
1869036,-0.796387,-0.665771,0.0305176
1872983,-0.777588,-0.605713,0.0537109
1876917,-0.777588,-0.613037,0.182861
1880858,-0.676758,-0.488037,0.182861
1884825,-0.792969,-0.715088,0.0551758
1888775,-0.792969,-0.715088,-0.00390625
1892705,-0.825684,-0.675537,-0.00390625
1896648,-0.711426,-0.520996,0.0771484
1900594,-0.711426,-0.520996,0.0683594
1904544,-0.740479,-0.453857,0.0683594
1908507,-0.81665,-0.724365,0.0705566
1912418,-0.81665,-0.724365,0.060791
1916344,-0.803223,-0.645996,0.060791
1920290,-0.73291,-0.47168,0.0686035
1924229,-0.73291,-0.47168,0.102539
1928215,-0.741943,-0.405762,0.0400391
1932119,-0.726807,-0.668701,0.0710449
1936042,-0.851807,-0.668701,0.0629883
1939973,-0.811035,-0.630127,0.125488
1943922,-0.807617,-0.458252,0.101562
1947844,-0.745117,-0.458252,0.117432
1951794,-0.828613,-0.458984,-0.00756836
1955724,-0.848145,-0.593018,0.0620117
1959678,-0.848145,-0.593018,0.0620117
1963603,-0.754639,-0.592529,0.161865
1967622,-0.752197,-0.446289,0.0478516
1971563,-0.814697,-0.446289,0.0478516
1975509,-0.827637,-0.499756,-0.00024414
1979457,-0.827637,-0.518799,0.0822754
1983410,-0.831787,-0.518799,0.0822754
1987354,-0.798096,-0.586426,0.108154
1991311,-0.798096,-0.506836,0.00585938
1995244,-0.830811,-0.506836,0.00585938
1999200,-0.822998,-0.470459,0.0268555
2003128,-0.822998,-0.458008,0.103027
2007056,-0.802246,-0.458008,0.103027
2011016,-0.848389,-0.602539,0.0983887
2014962,-0.848389,-0.604736,0.0500488
2018909,-0.861084,-0.542236,0.0500488
2022825,-0.844971,-0.454346,0.0439453
2026775,-0.844971,-0.490479,0.163818
2030750,-0.769531,-0.365479,0.163818
2034664,-0.865723,-0.59375,0.0651855
2038610,-0.865723,-0.605957,0.048584
2042551,-0.871338,-0.543457,0.048584
2046479,-0.810303,-0.427734,0.0837402
2050414,-0.810303,-0.427734,0.107178
2054364,-0.798584,-0.325195,0.107178
2058301,-0.89502,-0.589355,0.0437012
2062246,-0.89502,-0.589355,0.0461426
2066177,-0.840332,-0.509766,0.0461426
2070128,-0.825439,-0.406738,0.0632324
2074067,-0.825439,-0.406738,0.065918
2078087,-0.804932,-0.29834,0.065918
2082028,-0.891357,-0.568604,0.0834961
2085969,-0.891357,-0.568604,0.0737305
2089942,-0.880371,-0.521484,0.0737305
2093859,-0.817627,-0.377686,0.0664062
2097799,-0.817627,-0.377686,0.09375
2101718,-0.840332,-0.336914,0.03125
2105659,-0.828613,-0.508545,0.109375
2109604,-0.891113,-0.508545,0.0656738
2113552,-0.83252,-0.529297,0.128174
2117499,-0.872559,-0.36792,0.0380859
2121488,-0.872559,-0.36792,0.0380859
2125422,-0.880615,-0.406738,-0.00341797
2129360,-0.876709,-0.44873,0.131104
2133284,-0.876709,-0.44873,0.131104
2137264,-0.845215,-0.499512,0.128418
2141156,-0.845215,-0.406982,-0.00756836
2145108,-0.906982,-0.406982,-0.00756836
2149046,-0.883789,-0.414307,0.0285645
2152982,-0.883789,-0.351074,0.116699
2156924,-0.855225,-0.351074,0.116699
2160875,-0.894043,-0.509277,0.100342
2164839,-0.894043,-0.419678,0.0290527
2168751,-0.901367,-0.419678,0.0290527
2172697,-0.896729,-0.395264,0.0490723
2176660,-0.896729,-0.394287,0.131104
2180568,-0.840088,-0.269287,0.131104
2184510,-0.914795,-0.508545,0.0949707
2188529,-0.914795,-0.549072,0.0495606
2192465,-0.911865,-0.424072,0.0495606
2196392,-0.868408,-0.316895,0.0703125
2200325,-0.868408,-0.373047,0.134277
2204276,-0.853027,-0.248047,0.134277
2208218,-0.935059,-0.482178,0.078125
2212155,-0.935059,-0.482178,0.0466309
2216130,-0.890137,-0.406982,0.0466309
2220044,-0.883301,-0.307373,0.032959
2223980,-0.883301,-0.307373,0.103516
2227921,-0.855469,-0.254883,0.103516
2231864,-0.935791,-0.473633,0.0686035
2235795,-0.935791,-0.473633,0.0317383
2239737,-0.91748,-0.392578,0.0317383
2243670,-0.885742,-0.282471,0.0341797
2247625,-0.885742,-0.282471,0.0241699
2251569,-0.887207,-0.259277,0.0866699
2255505,-0.922607,-0.400879,0.124268
2259454,-0.922607,-0.400879,0.119385
2263400,-0.915771,-0.394775,0.0568848
2267327,-0.924316,-0.0812988,0.0124512
2271287,-1.11182,-0.0812988,0.0417481
2275236,-0.88916,0.387695,-0.083252
2279166,-0.894775,0.107666,-0.15918
2283122,-1.14478,0.107666,-0.15918
2287085,0.0236816,0.371826,0.687988
2290988,0.0236816,-1.20605,-0.0749512
2294937,-1.34058,-1.20605,-0.0749512
2298925,-1.21582,-1.56616,-0.240723
2302842,-1.21582,-0.44751,0.608398
2306804,-0.615967,-0.44751,0.608398
2310744,-1.08398,-0.0134277,-0.0634766
2314682,-1.08398,-0.251465,0.238525
2318625,-0.689453,-0.251465,0.238525
2322566,-1.00928,-0.489746,-0.0837402
2326485,-1.00928,-0.530273,-0.111328
2330411,-1.07178,-0.530273,-0.111328
2334365,-0.848877,-0.399658,0.188477
2338328,-0.848877,-0.418213,-0.159424
2342307,-0.947998,0.0192871,-0.159424
2346209,-0.841309,-0.137695,0.103027
2350160,-0.841309,-0.177734,-0.0810547
2354118,-1.00391,-0.365234,-0.0810547
2358033,-0.974121,-0.535156,0.12207
2361981,-0.974121,-0.535156,0.126953
2365925,-0.890137,-0.132568,0.126953
2369824,-0.893311,-0.00024414,0.0617676
2373767,-0.893311,-0.00024414,0.282715
2377710,-0.894287,-0.122803,0.282715
2381675,-1.01855,-0.397217,0.106445
2385571,-1.01855,-0.397217,0.2229
2389526,-0.885254,-0.181641,0.2229
2393429,-0.989258,0.0141602,-0.00415039
2397359,-0.989258,0.0141602,-0.0319824
2401309,-0.860596,-0.050293,0.155518
2405256,-0.86084,-0.236816,0.0864258
2409272,-0.98584,-0.236816,0.0749512
2413212,-0.973633,-0.166748,-0.0500488
2417155,-0.9729,-0.0390625,-0.0170898
2421079,-0.9104,-0.0390625,-0.0249023
2425042,-1.0022,-0.0969238,-0.0874023
2428934,-1.03223,-0.190186,0.13208
2432874,-0.907227,-0.190186,0.13208
2436830,-0.978027,-0.202393,-0.0236816
2440766,-0.960693,-0.160889,0.0151367
2444712,-0.960693,-0.160889,0.0151367
2448647,-0.941895,-0.104736,0.12207
2452615,-0.941895,-0.16333,0.198242
2456521,-0.941406,-0.16333,0.198242
2460479,-0.946289,-0.286865,0.199463
2464439,-0.946289,-0.145508,0.0561523
2468346,-0.99585,-0.145508,0.0561523
2472290,-0.921387,-0.181396,0.170654
2476233,-0.921387,-0.0759277,0.140869
2480178,-0.942871,-0.0759277,0.140869
2484124,-0.977539,-0.341553,0.0725098
2488096,-0.977539,-0.348633,0.00878906
2492019,-0.964844,-0.161133,0.00878906
2495935,-0.948975,-0.121582,0.00561523
2499903,-0.948975,-0.0825195,0.0629883
2503843,-0.931885,-0.14502,0.0629883
2507810,-1.01343,-0.31543,-0.0678711
2511751,-1.01343,-0.356934,-0.0383301
2515668,-0.945801,-0.169434,-0.0383301
2519679,-0.958496,-0.0700684,0.0180664
2523614,-0.958496,-0.0700684,0.170654
2527584,-0.933105,-0.137451,0.170654
2531492,-0.969238,-0.236328,0.120605
2535431,-0.969238,-0.236328,0.0390625
2539366,-0.984131,-0.190186,0.0390625
2543318,-0.94458,-0.117432,0.149902
2547244,-0.94458,-0.117432,0.224365
2551185,-0.935059,-0.0744629,0.224365
2555119,-0.94458,-0.134033,0.188965
2559050,-0.94458,-0.134033,0.208496
2563034,-0.991455,-0.220947,0.0209961
2566977,-0.958252,-0.0834961,0.0288086
2570903,-0.958252,-0.0834961,0.0297852
2574827,-0.930176,-0.00732422,0.0922852
2578788,-0.894775,-0.0585938,0.0649414
2582761,-0.957275,-0.0585938,0.064209
2586697,-0.981201,-0.223633,-0.060791
2590596,-0.993164,-0.110352,-0.0776367
2594544,-0.993164,-0.110352,-0.0776367
2598487,-0.953369,0.0285645,0.0629883
2602443,-0.953369,-0.00830078,0.117188
2606384,-0.936523,-0.00830078,0.117188
2610324,-0.974365,-0.17041,0.034668
2614230,-0.974365,-0.0947266,0.0400391
2618176,-0.990723,-0.0947266,0.0400391
2622111,-0.970215,-0.0170898,0.173828
2626061,-0.970215,0.0686035,0.238037
2630037,-0.919922,0.0686035,0.238037
2634016,-1.00269,-0.166016,0.0957031
2637943,-1.00269,-0.148926,0.0754395
2641861,-0.966309,-0.0239258,0.0754395
2645794,-0.952637,0.026123,0.141113
2649728,-0.952637,0.0439453,0.145508
2653704,-0.94873,0.0439453,0.145508
2657613,-0.993164,-0.102783,-0.00878906
2661622,-0.993164,-0.123779,-0.0817871
2665602,-0.995361,0.0012207,-0.0817871
2669535,-0.936035,0.0812988,0.0380859
2673476,-0.936035,0.104492,0.0793457
2677435,-0.970947,0.0419922,0.0793457
2681377,-0.992188,-0.0837402,-0.00146484
2685301,-0.992188,-0.0837402,-0.0524902
2689203,-0.970947,0.0424805,-0.0524902
2693145,-0.962402,0.0688477,0.104248
2697102,-0.962402,0.0688477,0.197754
2701031,-0.95752,0.064209,0.197754
2704984,-0.965088,-0.0249023,0.143066
2708911,-0.965088,-0.0249023,0.0520019
2712854,-0.978271,0.0319824,0.0520019
2716763,-0.962646,0.060791,0.143066
2720690,-0.962646,0.060791,0.166016
2724629,-0.943604,0.0341797,0.228516
2728568,-0.953613,0.088623,0.102539
2732511,-0.953613,0.088623,0.0930176
2736447,-0.996094,-0.032959,-0.0319824
2740418,-0.977295,-0.00439453,0.0136719
2744316,-0.977295,-0.00439453,0.0136719
2748259,-0.932861,0.151123,0.0964355
2752170,-0.901123,0.132324,0.0305176
2756089,-0.963623,0.132324,0.0305176
2760065,-0.990967,-0.0737305,-0.0795898
2764010,-0.990967,0.0158691,-0.0175781
2767968,-0.97998,0.0158691,-0.0175781
2771972,-0.950684,0.130127,0.13501
2775911,-0.950684,0.161133,0.156982
2779873,-0.946777,0.161133,0.156982
2783811,-0.999023,-0.112793,0.0327148
2787716,-0.999023,0.0649414,0.0722656
2791688,-0.974854,0.0649414,0.0722656
2795587,-0.955566,0.119141,0.221436
2799531,-0.955566,0.0632324,0.218994
2803465,-0.943359,0.125732,0.218994
2807397,-0.982666,-0.00683594,0.0541992
2811343,-0.982666,-0.0583496,0.00073242
2815270,-0.977295,0.0666504,0.00073242
2819176,-0.939941,0.148193,0.124023
2823107,-0.939941,0.148193,0.111328
2827046,-0.957764,0.181641,0.111328
2830988,-0.991943,0.0476074,-0.0466309
2834931,-0.991943,0.0476074,-0.0856934
2838883,-0.980469,0.0925293,-0.0856934
2842830,-0.94165,0.117676,0.0598144
2846761,-0.94165,0.117676,0.111816
2850728,-0.963135,0.17334,0.111816
2854641,-0.965576,0.17749,0.0256348
2858579,-0.965576,0.17749,0.0107422
2862507,-0.974609,0.027832,0.0107422
2866451,-0.954346,0.0927734,0.148926
2870385,-0.954346,0.0927734,0.161621
2874319,-0.940918,0.165771,0.224121
2878260,-0.94751,0.275391,0.123291
2882259,-0.94751,0.275391,0.109375
2886193,-0.978516,0.0236816,0.046875
2890115,-0.946045,0.0522461,0.124512
2894051,-0.946045,0.0522461,0.124512
2897991,-0.918945,0.24292,0.166016
2901955,-0.911377,0.301758,0.064209
2905894,-0.973877,0.301758,0.064209
2909810,-0.962402,0.0354004,-0.0412598
2913747,-0.962402,0.107178,-0.0253906
2917671,-0.959473,0.107178,-0.0253906
2921609,-0.942139,0.252441,0.065918
2925538,-0.942139,0.266602,0.0686035
2929473,-0.955566,0.266602,0.0686035
2933433,-0.965088,0.0654297,-0.0227051
2937374,-0.965088,0.0883789,0.00830078
2941315,-0.956299,0.150879,0.00830078
2945256,-0.947998,0.255615,0.161621
2949203,-0.947998,0.260986,0.194092
2953145,-0.928711,0.260986,0.194092
2957097,-0.951904,0.159424,0.0727539
2961040,-0.951904,0.149902,0.0666504
2964965,-0.959961,0.212402,0.0666504
2968908,-0.940918,0.28418,0.171631
2972845,-0.940918,0.28418,0.21582
2976781,-0.91626,0.23291,0.21582
2980716,-0.951172,0.254639,0.012207
2984668,-0.951172,0.254639,-0.0332031
2988613,-0.973877,0.23584,-0.0332031
2992613,-0.907959,0.256348,0.0895996
2996568,-0.907959,0.256348,0.0866699
3000506,-0.92749,0.286865,0.0866699
3004441,-0.966309,0.289062,-0.0368652
3008392,-0.966309,0.289062,-0.0500488
3012327,-0.946045,0.239014,-0.0500488
3016260,-0.924561,0.251465,0.0805664
3020187,-0.924561,0.251465,0.074707
3024134,-0.930664,0.27417,0.137207
3028071,-0.877441,0.393799,0.0839844
3032015,-0.939941,0.393799,0.0639648
3035968,-0.936768,0.155762,0.0639648
3039908,-0.892578,0.250977,0.142334
3043845,-0.892578,0.250977,0.182129
3047832,-0.942139,0.337646,0.182129
3051738,-0.985596,0.401123,0.150635
3055644,-0.923096,0.401123,0.150635
3059608,-0.912842,0.169922,0.079834
3063538,-0.912842,0.238281,0.0273438
3067471,-0.946777,0.238281,0.0273438
3071410,-0.920654,0.41748,0.0654297
3075341,-0.920654,0.412354,0.0964355
3079281,-0.932373,0.412354,0.0964355
3083203,-0.914062,0.135742,0.00756836
3087133,-0.914062,0.291016,-0.0761719
3091069,-0.94458,0.291016,-0.0761719
3095036,-0.919434,0.421631,0.0554199
3098959,-0.919434,0.396729,0.130859
3102958,-0.916748,0.334229,0.130859
3106915,-0.895752,0.224121,0.048584
3110839,-0.895752,0.236084,0.0117188
3114797,-0.944092,0.298584,0.0117188
3118728,-0.90918,0.362549,0.154053
3122673,-0.90918,0.313965,0.236328
3126633,-0.875,0.313965,0.236328
3130561,-0.923584,0.344727,0.0737305
3134495,-0.923584,0.344727,0.0539551
3138417,-0.925537,0.291016,0.0539551
3142355,-0.878662,0.304932,0.146729
3146296,-0.878662,0.304932,0.13916
3150223,-0.911621,0.36084,0.13916
3154154,-0.928223,0.432861,0.017334
3158119,-0.928223,0.432861,-0.0363769
3162029,-0.912109,0.245605,-0.0363769
3165996,-0.891357,0.297119,0.0246582
3169894,-0.891357,0.297119,0.00512695
3173868,-0.923584,0.40918,0.067627
3177821,-0.898193,0.511719,0.0561523
3181754,-0.898193,0.511719,0.0283203
3185656,-0.884766,0.221924,0.0283203
3189586,-0.876953,0.279541,0.0385742
3193545,-0.876953,0.279541,0.0385742
3197473,-0.902832,0.459717,0.103271
3201393,-0.881836,0.529297,0.217773
3205346,-0.881836,0.529297,0.217773
3209284,-0.851074,0.306885,0.142822
3213281,-0.851074,0.325195,0.0305176
3217212,-0.910156,0.325195,0.0305176
3221141,-0.870605,0.524902,0.101318
3225070,-0.870605,0.507812,0.193115
3229018,-0.890137,0.507812,0.193115
3232943,-0.849609,0.379883,0.102539
3236879,-0.849609,0.370117,-0.0637207
3240818,-0.916504,0.370117,-0.0637207
3244756,-0.869873,0.467773,0.0280762
3248705,-0.869873,0.494385,0.117188
3252662,-0.861328,0.431885,0.117188
3256608,-0.883789,0.42749,0.0241699
3260534,-0.883789,0.41333,-0.0380859
3264511,-0.891357,0.35083,-0.0380859
3268408,-0.903076,0.770752,-0.0249023
3272396,-0.903076,0.775635,0.176514
3276323,-0.498779,0.0256348,0.176514
3280231,-1.3894,1.84985,-0.318359
3284153,-1.3894,1.84985,0.299072
3288090,-0.979004,0.786621,0.299072
3292034,-0.39624,-1.06445,0.442139
3295944,-0.39624,-1.06445,-0.165283
3299902,-0.951904,0.289062,-0.165283
3303819,-0.946533,1.12256,-0.0773926
3307753,-0.946533,1.12256,-0.116943
3311696,-0.910889,0.442139,0.195557
3315627,-0.696533,0.54248,0.429443
3319598,-0.696533,0.54248,0.391602
3323576,-0.921143,0.254639,-0.170898
3327510,-0.912354,0.446533,-0.189697
3331482,-0.849854,0.446533,-0.244629
3335416,-0.833008,0.496582,0.192871
3339336,-0.855469,0.535156,0.183594
3343299,-0.917969,0.535156,0.183594
3347252,-0.754883,0.499023,0.14209
3351165,-0.7854,0.476562,-0.233643
3355121,-0.9729,0.476562,-0.233643
3359059,-0.763916,0.338379,0.065918
3363005,-0.763916,0.52124,0.265137
3366898,-0.787109,0.52124,0.265137
3370842,-0.885254,0.64624,0.118164
3374767,-0.885254,0.611572,0.0834961
3378708,-0.795166,0.611572,0.0834961
3382638,-0.876465,0.387207,-0.0500488
3386593,-0.876465,0.522217,0.176025
3390540,-0.741943,0.522217,0.176025
3394454,-0.818848,0.61499,0.218994
3398393,-0.818848,0.592773,0.0556641
3402337,-0.844482,0.655273,0.0556641
3406277,-0.803955,0.517578,-0.0388184
3410210,-0.803955,0.520264,-0.0200195
3414134,-0.850098,0.457764,-0.0200195
3418073,-0.717285,0.643799,0.217529
3422033,-0.717285,0.643799,0.0788574
3426004,-0.848145,0.575684,0.0788574
3429922,-0.814209,0.638672,-0.0942383
3433970,-0.814209,0.638672,0.0100098
3437852,-0.809326,0.477295,0.0100098
3441805,-0.767334,0.527588,0.178223
3445749,-0.767334,0.527588,0.187012
3449703,-0.773682,0.61499,0.187012
3453633,-0.848633,0.702881,-0.020752
3457576,-0.848633,0.702881,0.0627441
3461510,-0.7854,0.476807,0.0627441
3465434,-0.753662,0.480713,0.200195
3469365,-0.753662,0.480713,0.216064
3473301,-0.778076,0.63916,0.153564
3477234,-0.763428,0.768311,0.0515137
3481161,-0.825928,0.768311,0.0581055
3485102,-0.756592,0.418701,0.0581055
3489043,-0.762695,0.520996,0.0424805
3492969,-0.762695,0.520996,0.0424805
3496949,-0.798584,0.670654,0.0573731
3500861,-0.798096,0.740234,0.0983887
3504816,-0.798096,0.740234,0.0983887
3508730,-0.73291,0.460449,0.0600586
3512668,-0.73291,0.518311,-0.0585938
3516596,-0.802246,0.518311,-0.0585938
3520547,-0.785889,0.70459,0.0371094
3524495,-0.785889,0.684082,0.206055
3528491,-0.753662,0.684082,0.206055
3532467,-0.717285,0.534912,0.12207
3536404,-0.717285,0.566162,-0.0146484
3540332,-0.784912,0.566162,-0.0146484
3544296,-0.773682,0.667236,0.064209
3548223,-0.773682,0.650146,0.235596
3552186,-0.716309,0.650146,0.235596
3556097,-0.734375,0.694336,0.115967
3560025,-0.734375,0.696289,0.0195312
3563959,-0.769287,0.508789,0.0195312
3567889,-0.700928,0.657471,0.0637207
3571829,-0.700928,0.657715,0.0771484
3575766,-0.775635,0.657715,0.0771484
3579709,-0.743164,0.817627,0.0678711
3583641,-0.743164,0.817627,0.0476074
3587559,-0.731934,0.515625,0.0476074
3591491,-0.696533,0.600342,0.0527344
3595429,-0.696533,0.600342,0.00024414
3599334,-0.754395,0.653809,0.00024414
3603287,-0.73877,0.789551,0.0803223
3607227,-0.73877,0.789551,0.10498
3611173,-0.663574,0.519043,0.16748
3615096,-0.731201,0.558105,0.0839844
3619016,-0.731201,0.558105,0.107422
3622969,-0.738037,0.697754,0.0449219
3626924,-0.69043,0.808594,0.10791
3630858,-0.75293,0.808594,0.0793457
3634786,-0.650879,0.522461,0.204346
3638805,-0.64502,0.572998,0.0822754
3642737,-0.70752,0.572998,0.0737305
3646655,-0.705811,0.752441,0.0112305
3650606,-0.689453,0.801025,0.0571289
3654520,-0.751953,0.801025,0.0571289
3658447,-0.644531,0.633301,0.136719
3662378,-0.644531,0.638184,0.0222168
3666299,-0.724121,0.638184,0.0222168
3670244,-0.689941,0.750488,0.0119629
3674186,-0.689941,0.799805,0.0454102
3678119,-0.708008,0.799805,0.0454102
3682042,-0.634766,0.708008,0.0891113
3686006,-0.634766,0.695312,0.0810547
3689915,-0.67627,0.632812,0.0810547
3693837,-0.651611,0.805908,0.0898438
3697774,-0.651611,0.775635,0.10498
3701709,-0.695312,0.775635,0.10498
3705659,-0.652832,0.798096,0.0895996
3709593,-0.652832,0.75,0.128662
3713485,-0.634766,0.5625,0.128662
3717457,-0.635986,0.739746,0.12085
3721379,-0.635986,0.739746,0.0888672
3725321,-0.692871,0.766602,0.0888672
3729268,-0.679443,0.91626,0.0219727
3733267,-0.679443,0.91626,0.0822754
3737156,-0.658447,0.534668,0.0822754
3741100,-0.604492,0.748779,0.092041
3745046,-0.604492,0.748779,0.0249023
3749047,-0.675293,0.717773,0.0249023
3752968,-0.667969,0.936035,0.0124512
3756926,-0.667969,0.936035,0.0390625
3760834,-0.592773,0.592041,0.101562
3764763,-0.592041,0.693359,0.0930176
3768694,-0.592041,0.693359,0.118896
3772625,-0.634033,0.762695,0.0563965
3776603,-0.654297,0.886963,0.0895996
3780549,-0.654297,0.886963,0.0922852
3784488,-0.566406,0.621338,0.154785
3788442,-0.578369,0.709229,0.0925293
3792361,-0.640869,0.709229,0.0925293
3796348,-0.608643,0.849121,0.083252
3800256,-0.608643,0.881836,0.0961914
3804202,-0.658936,0.881836,0.0961914
3808130,-0.557861,0.680908,0.113525
3812089,-0.557861,0.685303,0.0363769
3815995,-0.634766,0.685303,0.0363769
3819938,-0.577148,0.894531,0.0417481
3823873,-0.577148,0.864258,0.0761719
3827836,-0.637939,0.864258,0.0761719
3831758,-0.521973,0.754395,0.0693359
3835696,-0.521973,0.790039,0.0129394
3839623,-0.655273,0.665039,0.0129394
3843561,-0.551514,0.936768,0.0991211
3847491,-0.551514,0.906982,0.0852051
3851424,-0.630127,0.844482,0.0852051
3855372,-0.558105,0.83667,0.101562
3859358,-0.558105,0.817871,0.104248
3863305,-0.556885,0.630371,0.104248
3867237,-0.564697,0.87085,0.115234
3871180,-0.564697,0.87085,0.105957
3875117,-0.587158,0.837891,0.105957
3879057,-0.57666,0.953857,0.0581055
3882989,-0.57666,0.953857,0.116943
3886933,-0.552734,0.566406,0.116943
3890881,-0.551025,0.873535,0.0725098
3894817,-0.551025,0.873535,0.0334473
3898724,-0.579346,0.825195,0.0334473
3902657,-0.574707,0.972412,0.0256348
3906583,-0.574707,0.972412,0.0449219
3910541,-0.482178,0.63916,0.107422
3914450,-0.467285,0.802002,0.0561523
3918380,-0.529785,0.802002,0.0185547
3922340,-0.568848,0.895996,0.0185547
3926273,-0.58252,0.96875,0.0952148
3930196,-0.58252,0.96875,0.0952148
3934120,-0.462402,0.657471,0.152832
3938055,-0.496826,0.737061,0.0761719
3942003,-0.559326,0.737061,0.0761719
3945938,-0.522949,0.938965,0.0649414
3949885,-0.522949,0.898926,0.121338
3953851,-0.557617,0.898926,0.121338
3957791,-0.47998,0.781738,0.140137
3961717,-0.47998,0.665039,0.0761719
3965660,-0.54541,0.665039,0.0761719
3969655,-0.51123,0.971436,0.0600586
3973581,-0.51123,0.908447,0.0532227
3977537,-0.554932,0.908447,0.0532227
3981436,-0.464844,0.931152,0.0422363
3985400,-0.464844,0.892578,0.0637207
3989307,-0.461182,0.642578,0.0637207
3993275,-0.458496,0.922119,0.0893555
3997197,-0.458496,0.897705,0.0476074
4001126,-0.519287,0.897705,0.0476074
4005050,-0.508545,1.03174,0.0270996
4008975,-0.508545,1.02368,0.107666
4012906,-0.452393,0.711182,0.107666
4016848,-0.456787,0.853271,0.128418
4020793,-0.456787,0.853271,0.109131
4024716,-0.442627,0.832031,0.109131
4028653,-0.485596,1.00562,0.0441894
4032572,-0.485596,1.00562,0.133545
4036529,-0.394775,0.649902,0.133545
4040472,-0.479736,0.84082,0.0847168
4044393,-0.479736,0.84082,0.083252
4048327,-0.467041,0.96875,0.083252
4052242,-0.449707,1.01953,0.0246582
4056172,-0.512207,1.01953,0.0439453
4060102,-0.386963,0.752686,0.106445
4064033,-0.378418,0.842773,0.0471191
4067979,-0.440918,0.842773,0.0446777
4071921,-0.423828,0.980957,0.0446777
4075848,-0.390137,1.05127,0.0905762
4079847,-0.452637,1.05127,0.0905762
4083786,-0.375977,0.765869,0.125488
4087767,-0.375977,0.885498,0.0534668
4091732,-0.457764,0.885498,0.0534668
4095625,-0.425781,1.03516,0.0861816
4099554,-0.425781,1.00562,0.130371
4103464,-0.442871,1.00562,0.130371
4107397,-0.379395,0.79248,0.132812
4111336,-0.379395,0.769775,0.076416
4115291,-0.444092,0.769775,0.076416
4119222,-0.400146,1.06567,0.0593262
4123138,-0.400146,1.07642,0.083252
4127066,-0.427734,0.951416,0.083252
4131009,-0.359131,0.916992,0.0639648
4134957,-0.359131,0.918457,0.0625
4138847,-0.400391,0.730957,0.0625
4142774,-0.380859,1.02856,0.0625
4146701,-0.380859,1.02856,0.0473633
4150626,-0.406982,0.931885,0.0473633
4154561,-0.387207,0.997559,0.0400391
4158503,-0.387207,0.997559,0.110596
4162438,-0.378906,0.713867,0.110596
4166406,-0.353271,0.973633,0.135254
4170343,-0.353271,0.973633,0.0654297
4174280,-0.392334,0.966797,0.0654297
4178196,-0.378662,1.11816,0.0529785
4182117,-0.378662,1.11816,0.0300293
4186050,-0.270752,0.721436,0.155029
4190069,-0.341797,0.977783,0.083252
4194015,-0.341797,0.977783,0.109375
4197946,-0.371582,1.08643,0.046875
4201858,-0.370361,1.0354,0.0844727
4205804,-0.370361,1.0354,0.113037
4209727,-0.312256,0.808838,0.113037
4213649,-0.257568,0.817139,0.0239258
4217593,-0.382568,0.817139,0.0239258
4221558,-0.364502,1.06348,0.0551758
4225473,-0.364502,0.972168,0.107178
4229420,-0.33667,0.972168,0.107178
4233349,-0.247314,1.46289,0.0571289
4237312,-0.247314,0.774902,-0.048584
4241239,-0.697754,0.774902,-0.048584
4245160,-0.078125,1.02051,0.474609
4249131,-0.078125,0.918213,-0.18335
4253074,-0.471191,0.918213,-0.18335
4256977,-0.519287,1.20312,-0.446777
4260904,-0.519287,1.19385,0.19165
4264803,0.00048828,0.506348,0.19165
4268747,-0.480713,0.623047,-0.255371
4272715,-0.480713,0.586914,0.156738
4276629,-0.396484,0.649414,0.156738
4280574,-0.259521,0.663574,0.505859
4284497,-0.259521,0.665527,0.222168
4288451,-0.467773,0.853027,0.222168
4292381,-0.400391,0.654785,0.283203
4296332,-0.400391,0.654785,0.40918
4300316,-0.174316,0.915283,0.40918
4304258,-0.388916,0.987305,-0.0158691
4308225,-0.388916,0.987305,0.0585938
4312149,-0.245361,1.15112,0.0585938
4316061,-0.116699,0.839355,0.118164
4320003,-0.116699,0.839355,-0.183105
4323938,-0.317139,1.1272,-0.183105
4327962,-0.233154,1.27051,-0.0751953
4331915,-0.233154,1.27051,-0.0649414
4335831,-0.253906,1.20459,-0.00244141
4339764,-0.217529,1.04932,-0.0234375
4343685,-0.217529,1.04932,-0.0136719
4347649,-0.211182,0.980225,0.0488281
4351568,-0.212891,1.19971,0.165039
4355509,-0.150391,1.19971,0.159668
4359400,-0.229248,1.21533,0.097168
4363327,-0.234375,1.2478,0.105469
4367275,-0.234375,1.2478,0.105469
4371183,-0.102051,0.986084,0.210449
4375106,-0.102051,1.07129,0.123779
4379035,-0.211426,1.07129,0.123779
4382982,-0.287354,1.19751,0.0480957
4386929,-0.287354,1.13599,0.123535
4390832,-0.221191,1.13599,0.123535
4394745,-0.260742,1.17456,-0.00219727
4398702,-0.260742,1.16699,0.0388184
4402624,-0.161377,0.916992,0.0388184
4406593,-0.176758,0.997559,0.0476074
4410503,-0.176758,0.953613,0.0178223
4414420,-0.247314,1.07861,0.0178223
4418345,-0.229004,1.2041,0.0280762
4422277,-0.229004,1.21387,0.0856934
4426218,-0.26001,1.08887,0.0856934
4430158,-0.147461,0.920898,0.132324
4434088,-0.147461,0.920898,0.0854492
4438092,-0.186035,0.847168,0.0854492
4442033,-0.213867,1.02148,0.105469
4446038,-0.213867,1.02148,0.112061
4449893,-0.225586,1.13696,0.112061
4453792,-0.25,1.01733,0.112305
4457732,-0.25,1.01733,0.0922852
4461647,-0.202881,1.09155,0.0922852
4465620,-0.138184,0.826172,0.11377
4469530,-0.138184,0.826172,0.0749512
4473482,-0.190186,0.878906,0.0749512
4477417,-0.208984,1.01587,0.060791
4481353,-0.208984,1.01587,0.0471191
4485255,-0.251221,1.1709,0.0471191
4489184,-0.285889,1.08374,0.0927734
4493161,-0.223389,1.08374,0.0927734
4497070,-0.132568,1.01147,0.115479
4500985,-0.132568,0.791992,0.0859375
4504930,-0.105713,0.791992,0.0859375
4508870,-0.13916,0.848389,0.0859375
4512799,-0.13916,1.05933,0.100098
4516720,-0.157227,1.05933,0.100098
4520676,-0.23877,1.17676,0.0754395
4524642,-0.23877,1.09888,0.136719
4528546,-0.208984,1.09888,0.136719
4532500,-0.12793,0.984863,0.133789
4536448,-0.12793,0.994629,0.0561523
4540399,-0.146729,0.807129,0.0561523
4544307,-0.127686,0.962158,0.090332
4548358,-0.127686,0.967285,0.0605469
4552313,-0.158203,1.09229,0.0605469
4556211,-0.202148,1.24463,0.0478516
4560135,-0.202148,1.24146,0.0834961
4564040,-0.178223,1.11646,0.0834961
4567978,-0.101562,1.08789,0.0700684
4571904,-0.101562,1.08789,0.0605469
4575838,-0.0822754,0.880371,0.0605469
4579771,-0.102051,0.960938,0.0759277
4583694,-0.102051,0.960938,0.0673828
4587635,-0.151123,1.08252,0.0673828
4591553,-0.167969,1.19971,0.0791016
4595505,-0.167969,1.19971,0.105957
4599418,-0.123779,1.15112,0.105957
4603347,-0.124023,1.10425,0.0830078
4607287,-0.124023,1.10425,0.0878906
4611210,-0.0581055,0.994385,0.0878906
4615152,-0.00561523,0.899902,0.0830078
4619073,-0.0681152,0.899902,0.100586
4623028,-0.102051,1.0354,0.0380859
4626905,-0.111328,1.10229,0.0932617
4630819,-0.111328,1.10229,0.0932617
4634774,-0.150879,1.2168,0.0795898
4638715,-0.150879,1.17822,0.0554199
4642639,-0.123047,1.17822,0.0554199
4646572,-0.107178,1.0459,0.0585938
4650512,-0.107178,0.990479,0.0898438
4654476,-0.0380859,0.990479,0.0898438
4658476,-0.0517578,0.909668,0.072998
4662438,-0.0517578,0.932129,0.0742188
4666390,-0.0732422,0.932129,0.0742188
4670319,-0.11377,1.07788,0.0776367
4674205,-0.11377,1.09106,0.0825195
4678170,-0.146973,1.15356,0.0825195
4682072,-0.138428,1.17383,0.0874023
4685989,-0.138428,1.1604,0.108398
4689936,-0.0893555,1.0354,0.108398
4693861,-0.0751953,1.04541,0.0834961
4697805,-0.0751953,1.03638,0.0812988
4701754,-0.043457,0.973877,0.0812988
4705677,-0.0209961,0.931885,0.0861816
4709622,-0.0209961,0.931885,0.0695801
4713559,-0.0810547,0.960938,0.0695801
4717486,-0.106201,1.04443,0.0849609
4721399,-0.106201,1.04443,0.0961914
4725323,-0.14209,1.12476,0.0961914
4729261,-0.146973,1.19653,0.0769043
4733188,-0.146973,1.19653,0.0900879
4737140,-0.0847168,1.07397,0.0900879
4741063,-0.0686035,1.06079,0.0717773
4745019,-0.0686035,1.06079,0.0825195
4748903,-0.0241699,1.03613,0.0825195
4752899,-0.00634766,0.983643,0.0959473
4756802,-0.00634766,0.983643,0.106445
4760698,-0.0556641,1.01294,0.106445
4764604,-0.00317383,1.00781,0.114258
4768629,-0.0656738,1.00781,0.114258
4772552,-0.10498,1.1106,0.0795898
4776467,-0.10498,1.10156,0.090332
4780412,-0.0991211,1.10156,0.090332
4784290,-0.0773926,1.07324,0.0891113
4788236,-0.0773926,1.01709,0.0830078
4792156,-0.0417481,1.01709,0.0830078
4796092,-0.0307617,0.949951,0.0766602
4800022,-0.0307617,0.981201,0.0786133
4803946,-0.0251465,0.981201,0.0786133
4807894,-0.0371094,1.05225,0.0632324
4811784,-0.0371094,1.00732,0.0751953
4815706,-0.0541992,1.06982,0.0751953
4819649,-0.064209,1.06299,0.0913086
4823577,-0.064209,1.0647,0.0908203
4827494,-0.0490723,1.0647,0.0908203
4831415,-0.064209,1.07397,0.0632324
4835347,-0.064209,1.07397,0.0742188
4839272,-0.0483398,1.11816,0.0742188
4843203,-0.0253906,1.08423,0.081543
4847145,-0.0253906,1.08423,0.0656738
4851070,-0.0212402,1.0918,0.0656738
4854979,-0.00854492,1.02856,0.0810547
4858898,-0.00854492,1.02856,0.0693359
4862829,-0.0146484,1.05957,0.0693359
4866748,-0.0236816,1.05151,0.0830078
4870674,-0.0236816,1.05151,0.0666504
4874588,-0.0212402,1.06714,0.0666504
4878582,-0.0307617,1.03564,0.0739746
4882510,-0.0307617,1.03564,0.0983887
4886475,-0.0078125,0.966064,0.0983887
4890383,-0.0363769,1.0022,0.0710449
4894333,-0.0363769,1.0022,0.0710449
4898242,-0.0458984,1.00684,0.0769043
4902169,-0.0458984,1.10791,0.0981445
4906088,-0.0319824,1.10791,0.0981445
4909999,-0.0520019,1.13721,0.0517578
4913925,-0.0520019,1.1311,0.0847168
4917845,-0.0241699,1.1311,0.0847168
4921758,0.00561523,1.12524,0.081543
4925672,0.00561523,1.16553,0.0629883
4929572,0.00561523,1.10303,0.0629883
4933492,0.0192871,1.06152,0.0844727
4937420,0.0192871,1.05322,0.0866699
4941356,0.0102539,1.05322,0.0866699
4945266,-0.0175781,1.08667,0.0795898
4949214,-0.0175781,1.08667,0.0942383
4953141,-0.0297852,1.04517,0.0942383
4957058,-0.0205078,1.03833,0.0922852
4961021,-0.0205078,1.03833,0.0827637
4964925,-0.0356445,0.945801,0.0827637
4968864,-0.0126953,0.942871,0.0986328
4972799,-0.0126953,0.942871,0.0878906
4976726,-0.0131836,0.907715,0.0878906
4980676,-0.034668,0.971436,0.0827637
4984622,-0.034668,0.971436,0.0969238
4988640,-0.0363769,1.05054,0.0969238
4992599,-0.0490723,1.17188,0.0698242
4996482,-0.0490723,1.17188,0.0708008
5000410,-0.0385742,1.13574,0.0708008
5004334,-0.0612793,1.13916,0.0993652
5008251,0.0012207,1.13916,0.0983887
5012181,0.0385742,1.14673,0.0983887
5016130,0.0258789,1.07056,0.0847168
5020049,0.0258789,1.07056,0.0847168
5023970,0.0361328,1.07275,0.098877
5027888,0.0361328,1.11108,0.0717773
5031813,-0.00439453,1.11108,0.0717773
5035729,-0.0104981,1.06348,0.090332
5039660,-0.0104981,1.01514,0.0847168
5043596,-0.00854492,1.01514,0.0847168
5047531,-0.0119629,0.99292,0.0837402
5051477,-0.0119629,0.945801,0.0683594
5055410,-0.00317383,0.945801,0.0683594
5059371,-0.0107422,0.976807,0.074707
5063274,-0.0107422,0.99707,0.0666504
5067229,-0.0212402,0.99707,0.0666504
5071125,-0.0214844,1.02539,0.0739746
5075036,-0.0214844,1.01831,0.092041
5078952,-0.0168457,1.08081,0.092041
5082891,0.00317383,1.10376,0.0869141
5086788,0.00317383,1.10376,0.081543
5090716,0.00976563,1.14014,0.081543
5094638,0.0307617,1.09277,0.0915527
5098600,0.0307617,1.09277,0.0786133
5102513,0.0510254,1.10962,0.0786133
5106452,0.0288086,1.09814,0.0749512
5110379,0.0288086,1.09814,0.083252
5114298,0.0349121,1.06689,0.083252
5118245,0.0195312,1.0791,0.0698242
5122150,0.0195312,1.0791,0.0632324
5126030,-0.00683594,1.03076,0.0632324
5129974,-0.0617676,0.989746,0.0722656
5133895,0.00073242,0.989746,0.0722656
5137806,0.00195313,0.969482,0.078125
5141735,0.00195313,0.97998,0.0725098
5145697,-0.0104981,0.97998,0.0725098
5149592,0.00439453,1.01294,0.0883789
5153531,0.00439453,1.01758,0.0793457
5157404,0.00244141,1.01758,0.0793457
5161325,-0.00048828,1.02295,0.0834961
5165288,-0.00048828,1.02563,0.0966797
5169199,0.0136719,1.02563,0.0966797
5173127,0.00952148,1.0188,0.0842285
5177049,0.00952148,1.02393,0.0932617
5180975,-0.0104981,1.08643,0.0932617
5184906,-0.00097656,1.10864,0.0864258
5188808,-0.00097656,1.12061,0.0708008
5192786,-0.00488281,1.12061,0.0708008
5196751,0.00683594,1.08081,0.081543
5200652,0.00683594,1.08081,0.0837402
5204556,0.0200195,1.04077,0.0837402
5208475,0.0236816,1.03516,0.0783691
5212395,0.0236816,1.03516,0.0749512
5216324,0.0175781,0.986084,0.0749512
5220234,0.00610352,0.981445,0.0751953
5224143,0.00610352,0.981445,0.0822754
5227999,0,0.976562,0.0822754
5231931,0.048584,1.0166,0.0974121
5235833,-0.013916,1.0166,0.103516
5239770,-0.00952148,1.02954,0.103516
5243705,-0.00854492,1.01367,0.0878906
5247619,-0.00854492,1.01367,0.0878906
5251538,0.00463867,0.999268,0.0820312
5255442,0.00463867,1.00464,0.0957031
5259355,0.0131836,1.00464,0.0957031
5263295,0.0214844,0.989014,0.0942383
5267214,0.0214844,1.00977,0.0991211
5271142,0.0175781,1.00977,0.0991211
5275052,0.0126953,1.01831,0.0837402
5278950,0.0126953,1.0105,0.0715332
5282871,0.0117188,1.0105,0.0715332
5286811,0.00097656,1.02368,0.0668945
5290690,0.00097656,1.0105,0.0773926
5294646,0.0144043,1.0105,0.0773926
5298562,0.00878906,1.00757,0.0820312
5302532,0.00878906,1.00757,0.0761719
5306462,0.0102539,1.00781,0.0761719
5310363,0.0102539,1.00684,0.0686035
5314283,0.0102539,1.00684,0.0698242
5318203,0.0168457,1.01538,0.0698242
5322125,0.0114746,1.01904,0.0756836
5326044,0.0114746,1.01904,0.0864258
5329978,0.0078125,1.01855,0.0864258
5333908,0.00976563,1.02759,0.0878906
5337839,0.00976563,1.02759,0.0847168
5341768,0.0170898,1.03442,0.0847168
5345702,0.0183105,1.03345,0.0852051
5349585,0.0183105,1.03345,0.0852051
5353509,0.0185547,1.01758,0.0737305
5357441,0.0185547,1.02905,0.0703125
5361366,0.0219727,1.02905,0.0703125
5365275,0.0222168,1.02979,0.079834
5369196,0.0222168,1.02515,0.0688477
5373162,0.0131836,1.02515,0.0688477
5377049,0.0163574,1.02905,0.0698242
5380971,0.0163574,1.01807,0.0700684
5384946,0.0112305,1.01807,0.0700684
5388793,0.0163574,1.0105,0.0725098
5392701,0.0163574,1.01318,0.0791016
5396607,0.015625,1.01318,0.0791016
5400559,0.00415039,1.00586,0.0839844
5404430,0.00415039,1.00732,0.0791016
5408322,0.00415039,1.00732,0.0791016
5412296,0.0065918,1,0.0859375
5416194,0.0065918,1,0.0895996
5420118,0.00366211,0.993164,0.0895996
5424122,0.00878906,0.989746,0.0871582
5428036,0.00878906,0.989746,0.083252
5431929,0.0102539,0.999268,0.083252
5435862,0.0104981,0.997803,0.0888672
5439792,0.0104981,0.997803,0.0803223
5443702,0.00292969,0.995117,0.0803223
5447654,0.0078125,1.00537,0.0837402
5451533,0.0078125,1.00537,0.0771484
5455434,0.00244141,1.00293,0.0771484
5459352,0.00463867,1.00928,0.0751953
5463290,0.00463867,1.00928,0.0751953
5467184,0.00292969,1.01172,0.0856934
5471114,0.00292969,1.00488,0.0839844
5475064,0.0090332,1.00488,0.0839844
5478969,0.00830078,0.993896,0.0795898
5482899,0.00830078,1.00537,0.0913086
5486811,0.0078125,1.00537,0.0913086
5490722,0.0117188,1.01001,0.0932617
5494632,0.0117188,1.01587,0.090332
5498571,0.0124512,1.01587,0.090332
5502494,0.00219727,1,0.0856934
5506384,0.00219727,1.00903,0.0913086
5510277,0.00268555,1.00903,0.0913086
5514174,0.0100098,1.00171,0.0932617
5518122,0.0100098,1.00171,0.0944824
5522076,0.012207,1.00464,0.0944824
5526029,0.00756836,1.00293,0.0827637
5529900,0.00756836,1.00293,0.0751953
5533800,0.0144043,1.0061,0.0751953
5537765,0.0222168,1.01465,0.0756836
5541668,0.0222168,1.01465,0.0722656
5545599,0.0129394,1.01685,0.0722656
5549481,0.0183105,1.01636,0.0727539
5553458,0.0183105,1.01636,0.0717773
5557376,0.0124512,1.01904,0.0717773
5561257,0.0144043,1.01294,0.0705566
5565190,0.0144043,1.01294,0.0705566
5569082,0.0170898,1.02002,0.0749512
5573025,0.0170898,1.01978,0.0793457
5576921,0.0112305,1.01978,0.0793457
5580841,0.0146484,1.01343,0.0859375
5584806,0.0146484,0.998779,0.0952148
5588743,0.015625,0.998779,0.0952148
5592629,0.0124512,1.0144,0.0874023
5596545,0.0124512,1.00903,0.0810547
5600452,0.00512695,1.00903,0.0810547
5604363,0.00585938,1.00171,0.0744629
5608279,0.00585938,1.0061,0.0725098
5612223,0.0102539,1.0061,0.0725098
5616109,0.0268555,1.01099,0.0820312
5620034,0.0268555,1.01099,0.0727539
5623939,0.0168457,1.01147,0.0727539
5627862,0.0166016,1.00879,0.0666504
5631849,0.0166016,1.00879,0.0720215
5635767,0.0175781,1.01758,0.0720215
5639689,0.00927734,1.02124,0.0678711
5643604,0.00927734,1.02124,0.0844727
5647517,0.0136719,1.01733,0.0844727
5651483,0.0197754,1.01025,0.0888672
5655360,0.0197754,1.01025,0.0859375
5659276,0.0151367,1.00928,0.0859375
5663222,0.013916,1.01025,0.0891113
5667157,0.013916,1.01025,0.0861816
5670999,0.00708008,1.00513,0.0861816
5674902,0.00561523,1.00635,0.0805664
5678836,0.00561523,1.00635,0.0805664
5682765,-0.00048828,1.0061,0.0917969
5686711,-0.00048828,0.990967,0.0795898
5690622,0.00488281,0.990967,0.0795898
5694557,0.00512695,0.996338,0.0812988
5698471,0.00512695,0.995605,0.0791016
5702402,0.00952148,0.995605,0.0791016
5706293,0.00537109,1.00537,0.0737305
5710216,0.00537109,1.01172,0.0830078
5714108,0.00756836,1.01172,0.0830078
5718034,0.0114746,1.00977,0.0793457
5721954,0.0114746,1.0061,0.0866699
5725865,0.0065918,1.0061,0.0866699
5729782,0.00805664,1.00928,0.0852051
5733700,0.00805664,1.00928,0.0908203
5737609,0.0161133,1.00269,0.0908203
5741609,0.00952148,1.0105,0.0932617
5745528,0.00952148,1.0105,0.0827637
5749556,0.00756836,1.01147,0.0827637
5753342,0.00317383,1.0022,0.0847168
5757261,0.00317383,1.0022,0.0932617
5761188,-0.00463867,0.995117,0.0932617
5765111,-0.0515137,0.998047,0.0979004
5769032,0.0109863,0.998047,0.0820312
5772929,0.00390625,1.00049,0.0820312
5776824,0.00708008,1.00195,0.0810547
5780732,0.00708008,1.00195,0.0810547
5784642,0.00683594,1.00415,0.0715332
5788528,0.00683594,1.00073,0.0737305
5792467,0.00854492,1.00073,0.0737305
5796369,0.0129394,0.999512,0.0825195
5800300,0.0129394,1,0.0727539
5804201,0.00732422,1,0.0727539
5808093,0.00244141,1.00244,0.0654297
5811972,0.00244141,1.02246,0.0739746
5815887,0.0126953,1.02246,0.0739746
5819808,0.00854492,1.01465,0.0698242
5823717,0.00854492,1.0144,0.081543
5827641,0.0112305,1.0144,0.081543
5831557,0.0114746,1.01709,0.0895996
5835544,0.0114746,1.01709,0.0844727
5839403,0.0134277,1.01245,0.0844727
5843342,0.0205078,1.00928,0.0827637
5847248,0.0205078,1.00928,0.0800781
5851205,0.0146484,1.01147,0.0800781
5855124,0.00952148,1.01465,0.072998
5859052,0.00952148,1.01465,0.0812988
5862967,0.0126953,1.01001,0.0812988
5866884,0.0065918,1.01074,0.0788574
5870835,0.0065918,1.01074,0.0700684
5874721,0.0090332,1.00928,0.0700684
5878653,0.00805664,1.00903,0.0656738
5882555,0.00805664,1.00903,0.0656738
5886478,0.00585938,1.00757,0.0776367
5890368,0.00585938,1.00244,0.0776367
5894290,0.00878906,1.00244,0.0776367
5898236,0.0141602,1.01562,0.0871582
5902105,0.0141602,1.00415,0.0864258
5906045,0.00488281,1.00415,0.0864258
5909936,0.0107422,1.00684,0.088623
5913869,0.0107422,1.0022,0.0837402
5917756,0.0136719,1.0022,0.0837402
5921669,0.0112305,1.01343,0.0883789
5925591,0.0112305,1.01001,0.0871582
5929481,0.0200195,1.01001,0.0871582
5933402,0.0141602,1.00049,0.0871582
5937329,0.0141602,1.00049,0.0837402
5941214,0.0126953,1.01147,0.0837402
5945143,0.0178223,1.01587,0.0756836
5949063,0.0178223,1.01587,0.0754395
5952969,0.0126953,1.01001,0.0754395
5956891,0.00854492,1.0127,0.0800781
5960885,0.00854492,1.0127,0.0849609
5964796,0.0141602,1.00684,0.0849609
5968706,0.0144043,1.0127,0.0820312
5972625,0.0144043,1.0127,0.0844727
5976552,0.0144043,1.0127,0.0844727
5980471,0.012207,1.00684,0.0922852
5984377,0.012207,1.00684,0.0922852
5988373,0.00927734,1,0.0932617
5992307,0.00878906,1.01147,0.090332
5996226,0.00878906,1.01147,0.090332
6000128,0.00366211,1.01001,0.0822754
6004028,0.00366211,1.00342,0.0961914
6007979,0.00952148,1.00342,0.0961914
6011887,0.0078125,0.992188,0.0942383
6015867,0.0078125,0.993652,0.0922852
6019735,0.00756836,0.993652,0.0922852
6023658,0.00244141,1.00146,0.0852051
6027554,0.00244141,1.00439,0.0734863
6031440,0.0144043,1.00439,0.0734863
6035382,0.0078125,1.0061,0.0759277
6039273,0.0078125,1.00757,0.0739746
6043191,0.0090332,1.00757,0.0739746
6047111,0.0146484,1.01636,0.0808105
6051025,0.0146484,1.01636,0.0742188
6054972,0.012207,1.00928,0.0742188
6058885,0.0153809,1.01294,0.0683594
6062823,0.0153809,1.01294,0.0664062
6066708,0.0090332,1.01196,0.0664062
6070645,0.0109863,1.0127,0.0805664
6074529,0.0109863,1.0127,0.0808105
6078441,0.00732422,1.0105,0.0808105
6082336,0.0117188,1.00342,0.101807
6086254,0.0117188,1.00342,0.101807
6090166,0.0104981,1.01074,0.088623
6094087,0.00976563,1.00195,0.0766602
6098071,0.00976563,1.00195,0.0766602
6101984,0.00732422,1.00439,0.0744629
6105921,0.00732422,1.01099,0.0690918
6109812,0.0100098,1.01099,0.0690918
6113754,0.0114746,1.01294,0.0795898
6117645,0.0114746,1.01123,0.0744629
6121544,0.00244141,1.01123,0.0744629
6125515,0.00366211,0.998779,0.0654297
6129420,0.00366211,0.937744,0.0686035
6133296,0.00390625,1.00024,0.0686035
6137209,0.00341797,1.00171,0.0708008
6141125,0.00341797,1.01196,0.0844727
6145047,0.00830078,1.01196,0.0844727
6148961,0.0141602,1.00024,0.0898438
6152867,0.0141602,1.00024,0.0871582
6156818,0.0117188,1.0061,0.0871582
6160686,0.0124512,1.00415,0.0810547
6164605,0.0124512,1.00415,0.0820312
6168497,0.0134277,1.00732,0.0820312
6172410,0.0136719,1.00562,0.0893555
6176367,0.0136719,1.00562,0.0964355
6180255,0.0158691,1.00537,0.0964355
6184200,0.0187988,1.01001,0.0856934
6188108,0.0187988,1.01001,0.0791016
6192023,0.0136719,1.01562,0.0791016
6195951,0.0112305,1.01514,0.0803223
6199827,0.0112305,1.01514,0.0803223
6203749,0.0100098,1.00317,0.0800781
6207783,0.0100098,0.997314,0.0817871
6211678,0.0183105,0.997314,0.0817871
6215620,0.0100098,0.999756,0.0805664
6219532,0.0100098,1.00244,0.0847168
6223442,0.00732422,1.00244,0.0847168
6227358,0.00195313,1.00879,0.0769043
6231272,0.00195313,1.01001,0.095459
6235185,0.0153809,1.01001,0.095459
6239108,0.0126953,1.00928,0.0861816
6243049,0.0126953,1.01416,0.0900879
6246969,0.0124512,1.01416,0.0900879
6250861,0.0134277,1.00732,0.0869141
6254796,0.0134277,1.00732,0.0834961
6258698,0.0170898,1.00952,0.0834961
6262602,0.0112305,1.01343,0.095459
6266524,0.0112305,1.01343,0.0915527
